ax,ay,az,gx,gy,gz,mav,rms,label_kontraksi,repetisi,id_orang
0.34,0.18,-1.04,-0.2,0.18,0.02,328.22,480.17,0,0,1
10.09,0.38,0.18,-0.19,0.3,-0.17,322.07,516.25,0,0,1
10.33,1.42,0.86,-0.04,0.04,-0.06,0.0,350.18,0,0,1
10.56,1.09,-0.26,0.2,-0.19,0.27,516.01,835.42,0,0,1
10.13,-1.09,-1.08,-0.14,0.01,0.33,488.25,696.52,0,0,1
10.87,-0.55,-1.65,-0.14,0.04,-0.73,681.85,1031.79,0,0,1
7.58,5.16,0.42,-0.79,-0.27,-2.05,1702.27,2032.39,1,0,1
-3.64,8.84,2.67,-0.03,0.23,0.13,1052.06,1238.36,0,1,1
4.94,7.89,-1.67,0.71,0.27,1.98,789.86,907.7,0,1,1
10.39,2.0,-1.02,0.02,0.26,1.06,827.44,1048.43,0,1,1
10.34,-0.74,-0.44,-0.08,0.07,0.1,637.66,726.92,0,1,1
10.37,-1.07,-0.66,-0.02,0.04,-0.05,544.15,674.9,0,1,1
11.3,1.53,-1.51,-0.81,-0.17,-1.77,998.63,1378.86,0,1,1
1.85,6.05,2.38,-1.11,-0.33,-1.69,1327.35,1593.06,1,1,1
2.74,8.68,-0.39,1.33,0.47,2.43,950.0,1000.27,0,2,1
10.54,1.63,-1.16,0.11,0.23,0.87,742.88,1009.77,0,2,1
10.9,-1.12,-1.21,0.01,0.03,0.35,552.0,682.89,0,2,1
10.12,-1.38,-0.64,-0.07,0.02,0.05,424.68,466.59,0,2,1
10.41,-0.91,-1.18,-0.18,-0.11,-0.32,715.83,978.81,0,2,1
10.17,3.78,-1.6,-0.99,-0.27,-1.78,1002.88,1353.51,0,2,1
-0.79,7.67,4.24,-0.8,0.18,-0.83,1189.08,1452.03,0,2,1
1.66,10.06,2.82,-0.36,-0.07,-0.27,1113.03,1390.23,0,2,1
0.51,8.07,3.5,0.31,0.96,-0.01,975.98,1256.67,0,2,1
1.3,10.85,1.09,-0.74,-0.36,-1.53,931.98,1174.85,0,2,1
-1.64,8.16,3.89,0.25,0.15,0.65,1049.5,1302.43,0,2,1
8.46,6.25,-0.8,0.99,0.25,2.6,737.09,872.89,0,2,1
11.01,-2.87,-0.48,-0.02,0.67,0.31,706.63,874.45,0,2,1
10.46,-2.9,-0.75,-0.03,-0.22,-0.41,565.72,738.95,0,2,1
9.63,1.11,-1.23,-1.1,0.08,-1.81,1262.52,1619.26,1,2,1
0.63,8.82,3.76,0.13,0.08,0.33,959.9,1005.12,0,3,1
5.98,6.95,-1.67,0.91,0.29,1.67,612.49,624.6,0,3,1
10.59,-0.68,-1.07,0.22,0.59,1.41,582.81,849.58,0,3,1
9.6,-2.11,-0.52,-0.19,-0.04,0.09,0.0,320.06,0,3,1
10.0,-2.44,0.16,-0.12,0.07,-0.02,0.0,399.8,0,3,1
10.74,-1.13,-0.85,-0.45,-0.11,-0.9,867.43,1283.78,0,3,1
8.08,5.91,0.65,-1.44,-0.46,-2.12,1392.26,1761.26,1,3,1
2.27,8.15,3.23,1.03,0.36,1.41,819.27,833.01,0,4,1
9.21,3.94,-0.19,0.63,0.15,1.57,533.95,636.53,0,4,1
10.31,-0.15,-0.75,0.16,0.11,0.68,537.23,694.47,0,4,1
9.92,-1.57,0.51,-0.22,0.01,0.02,372.95,412.96,0,4,1
10.67,0.21,-1.93,-0.51,-0.27,-1.16,1154.44,1584.67,1,4,1
0.4,6.05,3.33,-0.47,0.05,-0.89,1073.73,1316.52,0,5,1
4.01,7.97,1.22,1.04,0.44,2.06,708.02,721.51,0,5,1
10.7,0.74,-0.36,0.45,-0.05,1.31,604.75,908.94,0,5,1
10.04,-2.27,-0.24,-0.05,0.19,-0.09,392.53,483.72,0,5,1
10.25,-2.56,0.16,-0.2,-0.06,-0.16,418.51,667.5,0,5,1
8.32,2.77,-1.67,-1.01,0.27,-1.94,1497.49,1883.04,1,5,1
-0.4,7.81,3.33,-0.09,0.31,0.04,937.06,1134.29,0,6,1
4.15,7.99,-0.56,1.39,0.43,2.39,768.33,797.46,0,6,1
11.18,-0.34,-1.38,0.37,0.22,1.73,557.91,766.75,0,6,1
9.7,-2.03,-1.07,-0.25,0.0,0.08,329.84,376.65,0,6,1
10.09,-2.49,-1.15,-0.14,0.01,-0.0,576.69,925.63,0,6,1
9.61,1.15,-2.26,-0.89,0.15,-1.69,1386.93,1749.5,1,6,1
-0.79,9.56,3.93,-0.16,0.18,0.15,1113.03,1357.95,0,7,1
6.57,7.58,0.69,1.06,-0.07,2.21,801.24,828.09,0,7,1
9.95,0.05,-0.43,0.28,0.23,0.95,648.42,910.3,0,7,1
9.77,-1.66,-0.4,-0.27,0.05,0.11,463.06,553.66,0,7,1
10.92,-1.98,-1.59,-0.37,-0.22,-0.35,625.54,933.81,0,7,1
8.95,2.36,-1.73,-0.99,-0.11,-1.88,1351.92,1737.52,1,7,1
0.7,9.9,4.08,0.03,-0.02,0.33,987.63,1194.18,0,8,1
5.6,7.59,0.54,1.13,0.32,2.05,734.5,820.09,0,8,1
10.77,1.87,-1.41,0.4,0.01,1.12,704.71,940.4,0,8,1
10.28,-1.13,-0.5,-0.12,0.05,-0.08,509.21,567.95,0,8,1
9.86,-0.88,-0.42,-0.19,0.13,-0.11,400.79,503.17,0,8,1
10.15,1.72,-0.95,-0.76,0.17,-1.37,1098.31,1461.97,0,8,1
5.01,6.75,0.71,-1.09,-0.22,-1.92,1821.76,2076.38,1,8,1
0.18,7.64,2.42,1.07,0.61,1.53,1018.91,1094.88,0,9,1
10.86,1.71,-1.85,0.26,0.27,2.0,739.71,907.03,0,9,1
10.33,-1.65,-1.03,0.05,0.14,0.16,693.48,798.73,0,9,1
10.14,-1.76,-1.08,-0.08,0.05,0.01,524.45,566.53,0,9,1
11.28,-0.59,-1.78,-0.62,0.15,-1.01,753.34,1105.02,0,9,1
9.39,5.64,-1.58,-0.79,-0.08,-1.68,1799.94,2086.28,1,9,1
1.7,8.15,3.83,0.32,0.32,0.69,956.47,1049.97,0,10,1
10.54,3.72,-0.76,0.77,0.23,2.02,776.55,936.55,0,10,1
10.7,-1.93,-0.59,0.11,0.05,0.44,732.37,842.32,0,10,1
10.17,-2.02,-0.44,-0.17,0.13,0.08,551.15,579.11,0,10,1
10.9,-1.11,-1.14,-0.4,-0.19,-0.86,672.22,921.64,0,10,1
9.35,3.26,-0.35,-0.75,-0.14,-1.51,1350.17,1750.65,1,10,1
0.56,8.7,2.83,0.12,0.03,0.48,969.47,1175.84,0,11,1
9.13,5.18,-0.91,0.83,0.42,1.93,785.67,986.27,0,11,1
10.53,-0.77,-0.82,0.16,-0.01,0.78,619.36,778.67,0,11,1
10.28,-1.41,-0.56,-0.1,0.1,0.11,481.74,514.67,0,11,1
10.3,-1.17,-0.36,-0.25,0.06,-0.03,485.4,690.48,0,11,1
9.48,1.75,-0.75,-0.74,-0.13,-1.51,1396.26,1776.4,1,11,1
1.11,7.59,4.06,-0.19,0.41,0.04,1097.55,1381.28,0,12,1
5.48,7.07,0.73,1.06,0.38,1.9,787.54,913.84,0,12,1
11.21,0.49,-0.87,0.34,-0.03,1.25,707.46,922.35,0,12,1
9.81,-1.79,-0.09,-0.12,0.03,-0.01,573.2,628.74,0,12,1
10.12,-2.3,0.09,-0.09,0.03,-0.02,409.05,458.93,0,12,1
11.12,-2.41,-0.48,-0.18,-0.11,-0.26,539.36,790.72,0,12,1
9.9,2.76,-1.03,-0.92,-0.2,-1.79,1333.21,1753.51,1,12,1
0.7,8.89,4.06,0.16,0.23,0.61,1008.11,1226.44,0,13,1
7.87,5.94,-0.11,1.2,0.3,2.34,745.97,891.99,0,13,1
0.43,-1.24,-1.47,0.36,-0.02,1.09,602.35,760.68,0,13,1
10.13,-1.83,-0.66,-0.13,0.01,0.06,440.09,465.48,0,13,1
10.18,-1.86,-0.45,-0.09,0.05,0.04,0.0,326.82,0,13,1
11.28,-0.96,-1.15,-0.24,-0.46,-0.88,734.8,1073.58,0,13,1
6.81,3.98,-0.01,-0.9,0.23,-1.66,1611.37,1966.71,1,13,1
1.01,8.11,4.31,0.44,0.41,1.01,946.72,1064.27,0,14,1
10.47,2.53,-0.82,0.73,-0.01,1.75,571.72,670.17,0,14,1
10.91,-1.37,-0.75,-0.01,0.09,0.55,524.88,576.62,0,14,1
10.0,-1.74,-0.23,-0.09,-0.05,0.08,397.3,425.13,0,14,1
10.07,-2.12,-0.75,-0.08,0.07,0.08,383.61,513.6,0,14,1
11.0,-2.18,-1.43,-0.54,-0.27,-0.95,1035.28,1447.07,0,14,1
8.52,5.8,-0.69,-1.23,-0.59,-2.15,1785.17,2065.24,1,14,1
3.49,6.59,1.95,1.06,0.46,1.82,948.02,1025.66,0,15,1
10.86,0.89,-1.58,0.59,0.14,1.6,803.09,958.16,0,15,1
9.81,-1.59,-0.94,-0.15,0.06,0.04,653.42,685.08,0,15,1
10.23,-1.9,-0.95,-0.08,0.11,0.03,460.68,479.57,0,15,1
10.35,-1.73,-0.49,-0.15,0.1,-0.1,357.63,505.47,0,15,1
10.1,0.93,-1.12,-0.78,0.02,-1.5,1262.42,1672.35,1,15,1
1.02,9.11,3.61,0.18,0.44,0.33,1175.66,1474.62,0,16,1
10.52,3.22,-1.04,1.04,0.25,2.11,693.5,827.47,0,16,1
11.25,-2.77,-1.08,0.03,0.16,0.88,504.22,584.83,0,16,1
9.64,-2.73,-0.28,-0.22,0.14,0.24,458.11,632.04,0,16,1
10.16,-3.17,-0.45,-0.07,-0.12,-0.05,452.34,607.36,0,16,1
11.19,-0.7,-2.13,-0.46,-0.14,-1.35,1092.22,1479.71,0,16,1
4.11,5.47,1.47,-1.59,-0.11,-2.22,1611.8,1877.96,1,16,1
2.5,7.47,1.42,1.13,0.63,2.37,1034.29,1091.7,0,17,1
11.47,-1.78,-1.19,0.4,0.2,1.71,678.51,820.09,0,17,1
10.53,-2.9,-0.07,-0.22,0.02,0.17,433.73,511.26,0,17,1
9.78,-2.75,-0.27,-0.05,0.05,-0.03,373.71,438.17,0,17,1
9.95,-2.75,-0.15,-0.07,0.06,0.04,333.33,366.27,0,17,1
11.46,-2.19,-1.19,-0.16,-0.24,-0.74,720.09,1096.6,0,17,1
8.74,2.95,-0.58,-1.02,0.05,-1.98,1574.99,1929.16,1,17,1
1.33,8.88,5.03,0.14,0.31,0.46,931.92,1060.37,0,18,1
8.77,5.57,-0.35,1.11,0.27,2.27,712.38,844.99,0,18,1
10.07,-1.76,-0.87,0.22,0.37,0.84,511.85,700.73,0,18,1
9.92,-2.61,-0.49,-0.1,0.14,0.13,405.58,452.68,0,18,1
9.77,-2.55,-0.38,-0.07,-0.1,-0.09,404.39,477.83,0,18,1
9.52,-0.24,-0.82,-0.33,-0.04,-1.03,1152.09,1603.53,1,18,1
0.28,6.57,2.8,-0.87,-0.21,-1.05,1343.59,1668.04,1,18,1
3.65,7.43,1.82,1.06,0.29,2.16,780.0,840.34,0,19,1
10.56,1.51,-0.29,0.38,-0.06,1.32,776.85,1043.36,0,19,1
10.14,-2.57,-0.76,-0.11,0.17,0.34,516.73,625.02,0,19,1
9.68,-3.29,-0.3,-0.09,0.01,0.05,414.27,461.21,0,19,1
10.35,-2.6,-0.63,-0.49,-0.13,-0.48,733.37,1092.23,0,19,1
9.01,3.6,-0.15,-0.89,0.01,-1.3,1560.53,1896.96,1,19,1
0.83,8.84,3.48,0.27,0.2,0.7,940.61,1116.54,0,20,1
8.87,4.59,-1.15,1.35,0.2,2.19,652.26,740.05,0,20,1
9.83,-0.85,-2.27,-0.71,-0.22,-0.78,588.23,706.17,0,20,1
4.04,9.73,-3.72,-0.46,0.03,-2.88,414.66,474.41,0,20,1
-7.98,4.78,-1.72,-1.66,-0.65,-2.6,390.05,466.14,0,20,1
-9.13,0.38,4.47,-0.2,-0.03,0.07,719.66,884.22,0,20,1
-7.49,0.17,4.71,-0.06,-0.03,0.03,831.31,976.91,0,20,1
9.56,1.87,2.0,-0.06,-0.03,-0.0,0.0,0.0,0,0,1
9.65,2.96,1.42,0.32,-0.12,0.08,336.24,566.86,0,0,1
10.1,0.82,0.14,0.02,-0.02,0.46,489.27,832.72,0,0,1
10.49,-0.78,-0.22,-0.1,-0.08,-0.13,556.67,839.75,0,0,1
8.18,4.34,0.49,-0.71,-0.07,-2.09,1475.12,1908.69,1,0,1
-1.27,7.89,3.16,0.54,0.32,0.87,1055.54,1351.48,0,1,1
4.76,7.77,-0.85,0.52,0.76,1.84,761.36,908.02,0,1,1
10.07,1.98,-0.96,0.01,0.06,0.89,692.69,806.84,0,1,1
10.08,-0.39,-0.25,-0.1,0.12,0.07,576.77,767.99,0,1,1
11.51,-0.51,-1.46,-0.56,0.03,-1.35,770.79,1131.33,0,1,1
3.0,7.96,1.92,-1.67,-0.22,-3.13,1279.76,1615.33,1,1,1
2.87,8.7,1.04,0.9,0.35,2.51,815.39,926.53,0,2,1
10.37,1.5,-0.97,0.21,0.18,1.23,693.82,858.95,0,2,1
10.2,-2.22,-0.59,-0.09,-0.1,0.02,520.9,612.5,0,2,1
9.9,-1.81,-0.67,-0.05,-0.01,-0.16,487.94,637.78,0,2,1
10.64,1.37,-1.04,-0.9,-0.02,-2.0,1120.75,1465.75,0,2,1
-0.99,7.94,3.96,-1.25,0.19,-2.21,1200.05,1481.62,0,2,1
-1.01,6.7,4.76,0.55,0.39,1.12,1006.25,1164.85,0,2,1
10.98,3.62,-2.09,0.44,-0.38,2.01,647.43,708.22,0,2,1
10.82,-1.99,-0.24,0.08,0.17,0.45,418.99,553.56,0,2,1
10.16,-1.9,-0.36,-0.08,0.11,-0.05,386.07,472.09,0,2,1
11.19,0.42,-1.1,-0.51,0.14,-1.35,912.75,1337.92,0,2,1
3.17,6.91,2.01,-1.37,-0.06,-2.87,1203.58,1541.17,1,2,1
1.64,8.8,1.61,0.93,0.16,2.56,700.48,786.4,0,3,1
10.57,0.83,-1.21,0.32,-0.16,1.29,647.35,884.87,0,3,1
9.79,-1.18,-1.2,-0.09,0.1,-0.09,612.38,916.64,0,3,1
10.44,-1.02,-2.29,-0.62,-0.33,0.35,812.2,1215.09,0,3,1
11.01,-2.43,-4.46,-0.31,-0.6,-0.67,950.15,1242.05,0,3,1
8.52,3.94,-4.97,-1.52,0.21,-2.29,1298.53,1621.73,1,3,1
4.67,6.63,0.11,1.09,0.79,1.94,731.6,895.08,0,4,1
9.67,-1.13,-3.85,0.43,-0.05,1.58,624.99,760.34,0,4,1
8.84,-2.66,-2.17,-0.11,0.05,-0.02,806.09,1024.56,0,4,1
10.31,-2.36,-2.96,-0.03,-0.11,0.04,825.63,1075.21,0,4,1
9.84,-1.09,-2.42,-0.84,0.36,-1.35,1127.25,1414.89,0,4,1
3.63,3.9,0.98,-1.47,-0.05,-1.89,1569.28,1755.66,1,4,1
5.49,8.23,1.16,1.07,0.74,1.94,1081.61,1173.71,0,5,1
10.85,0.75,-2.23,0.29,0.05,1.04,842.07,1066.05,0,5,1
10.07,-0.94,-0.58,-0.08,0.06,0.24,840.85,1024.54,0,5,1
10.3,-0.98,-1.11,-0.09,-0.06,0.14,675.26,831.8,0,5,1
9.9,-1.51,-0.85,-0.05,0.01,0.1,622.84,752.1,0,5,1
11.5,-0.8,-1.57,-0.55,-0.18,-0.99,930.7,1234.71,0,5,1
7.03,6.25,-0.5,-1.22,-0.52,-1.99,1537.65,1813.45,1,5,1
4.3,7.37,2.57,0.96,0.77,1.76,1123.52,1210.08,0,6,1
9.49,3.67,-0.69,0.44,0.13,1.36,831.9,1024.53,0,6,1
9.7,0.09,-0.22,0.1,0.01,0.21,705.21,897.78,0,6,1
9.99,-1.07,0.25,-0.09,-0.02,0.1,612.39,694.3,0,6,1
10.0,-1.47,-0.32,-0.09,0.02,-0.02,563.47,718.12,0,6,1
11.0,-0.14,-1.24,-0.71,-0.19,-1.07,1296.06,1666.17,1,6,1
1.72,6.63,4.63,-0.6,0.06,-0.96,1399.01,1690.07,1,6,1
6.58,7.09,1.27,1.18,0.63,2.09,949.63,1056.32,0,7,1
11.01,1.36,-0.08,0.14,0.07,0.85,741.82,854.21,0,7,1
10.33,0.02,-0.73,-0.08,0.01,0.19,642.22,790.87,0,7,1
10.14,-0.3,-0.76,-0.14,0.07,0.16,536.55,662.24,0,7,1
11.68,-1.29,-1.03,-0.47,-0.06,-0.93,982.11,1398.04,0,7,1
5.15,7.35,0.65,-0.97,-0.5,-1.83,1554.26,1892.54,1,7,1
4.53,7.54,1.69,1.12,0.22,2.53,1094.18,1184.9,0,8,1
10.76,1.37,-1.08,-0.06,0.05,1.17,740.58,926.58,0,8,1
10.38,-1.51,-0.57,-0.02,-0.09,0.28,676.9,882.88,0,8,1
10.12,-1.5,-0.52,-0.05,0.03,-0.01,527.68,648.45,0,8,1
11.01,-1.54,-1.03,-0.26,-0.01,-0.19,736.34,1011.47,0,8,1
9.39,2.68,-0.89,-0.92,0.03,-2.03,1500.97,1839.86,1,8,1
3.69,7.4,3.45,0.63,0.39,1.58,995.55,1185.31,0,9,1
9.73,3.94,-0.33,0.58,0.1,1.14,829.45,1001.59,0,9,1
9.94,-0.68,-0.35,0.15,0.03,0.58,765.33,965.52,0,9,1
9.89,-1.75,-0.75,-0.01,0.04,-0.08,577.66,647.45,0,9,1
10.23,-1.21,-1.06,-0.27,-0.02,-0.08,681.8,936.1,0,9,1
8.64,3.86,-1.47,-1.05,-0.11,-1.85,1335.39,1674.33,1,9,1
2.83,7.17,2.08,1.09,0.6,1.66,1013.08,1216.27,0,10,1
10.57,2.26,-1.71,0.59,0.0,1.75,759.42,927.29,0,10,1
9.98,-2.52,-1.31,0.05,0.07,-0.04,804.36,905.82,0,10,1
10.02,-2.04,-1.44,-0.09,0.09,-0.07,467.41,527.94,0,10,1
10.64,-1.62,-1.39,-0.15,0.24,-0.31,780.59,1075.95,0,10,1
10.39,3.18,-2.07,-0.77,-0.35,-2.03,1369.34,1719.41,1,10,1
0.7,6.42,2.55,1.06,0.55,1.86,1159.03,1291.64,0,11,1
10.41,0.69,-1.65,0.43,0.19,1.33,850.3,1034.27,0,11,1
11.22,-1.69,-1.24,-0.06,-0.04,0.39,713.7,946.2,0,11,1
10.25,-1.42,-0.87,-0.12,0.07,-0.09,527.11,613.74,0,11,1
12.08,-0.51,-1.42,-0.38,-0.09,-1.04,820.55,1093.1,0,11,1
6.45,6.12,0.54,-1.27,-0.45,-1.83,1481.94,1799.51,1,11,1
3.02,7.54,1.4,1.15,0.33,2.24,1063.71,1158.9,0,12,1
10.18,3.13,-1.19,0.35,0.34,1.28,851.84,1107.52,0,12,1
10.3,0.27,-0.62,0.09,0.02,0.4,759.02,974.63,0,12,1
10.25,-0.49,-0.37,-0.03,-0.1,-0.01,691.2,819.05,0,12,1
11.35,-0.52,-1.6,-0.32,-0.1,-0.18,789.56,1067.16,0,12,1
10.81,3.52,-1.16,-0.6,-0.09,-1.7,1125.57,1443.62,0,12,1
1.52,5.66,2.83,-1.22,-0.36,-2.06,1417.89,1698.71,1,12,1
6.54,6.89,0.77,0.73,0.23,2.11,1197.1,1281.39,0,13,1
11.31,2.01,-0.88,0.21,-0.76,0.81,899.6,1070.15,0,13,1
9.63,-1.46,-0.58,0.21,-0.07,0.73,653.62,788.44,0,13,1
10.46,-2.57,-0.7,-0.14,0.09,0.09,669.22,846.64,0,13,1
10.88,-2.87,-0.85,-0.23,-0.37,-0.34,810.59,1157.94,0,13,1
10.0,1.1,-2.0,-0.72,0.23,-1.55,1482.33,1796.98,1,13,1
0.73,8.93,2.62,0.43,0.42,0.84,1148.24,1282.33,0,14,1
10.76,3.23,-1.28,0.27,0.19,1.39,970.81,1221.65,0,14,1
10.13,-2.02,-0.64,-0.01,0.24,0.41,730.5,908.48,0,14,1
10.16,-2.76,-0.92,-0.13,0.06,-0.29,639.32,749.24,0,14,1
10.73,0.18,-1.38,-0.47,-0.09,-1.18,1149.13,1526.85,1,14,1
0.5,7.33,3.19,-0.41,0.18,-0.63,1507.2,1768.71,1,14,1
4.46,7.36,0.79,0.94,0.48,1.88,1044.88,1141.98,0,15,1
9.64,3.09,-1.07,0.13,-0.11,0.82,722.61,872.89,0,15,1
9.78,0.87,-0.91,0.05,0.26,0.52,755.7,960.93,0,15,1
10.57,-1.38,-0.33,-0.06,0.0,-0.08,671.69,912.89,0,15,1
10.63,1.77,-3.06,-1.47,-0.63,-1.85,1363.68,1701.89,1,15,1
0.94,9.51,1.28,0.34,-0.23,1.14,1016.97,1201.97,0,16,1
9.83,2.61,-2.36,0.93,0.11,2.12,1018.7,1260.53,0,16,1
9.71,-3.2,-2.03,0.15,-0.04,0.46,864.18,1089.81,0,16,1
9.64,-3.92,-2.44,-0.06,0.09,0.12,723.41,894.6,0,16,1
9.67,-3.08,-2.21,0.02,0.07,-0.53,1082.34,1334.34,0,16,1
9.55,3.1,-2.22,-1.6,-0.39,-2.1,1491.08,1742.21,1,16,1
3.43,7.35,0.83,0.78,-0.14,2.09,1178.82,1336.8,0,17,1
10.55,2.89,-1.35,0.55,0.04,0.89,886.7,1077.3,0,17,1
10.81,-1.91,-1.43,0.26,0.27,0.52,876.1,1048.77,0,17,1
9.99,-2.8,-1.66,0.01,0.25,0.17,603.6,740.04,0,17,1
10.94,-2.74,-1.74,-0.57,-0.08,-0.52,876.69,1185.46,0,17,1
7.03,5.9,-1.23,-1.28,-0.6,-2.38,1676.9,1929.03,1,17,1
3.29,6.79,1.14,1.09,0.29,2.37,1146.54,1260.63,0,18,1
10.34,0.89,-1.73,0.29,0.1,0.98,988.42,1262.55,0,18,1
9.88,-0.45,-0.8,0.0,0.04,0.29,792.68,977.44,0,18,1
9.91,-2.21,-0.59,0.01,0.02,0.32,661.87,748.49,0,18,1
9.89,-2.81,-0.58,-0.04,0.05,0.07,545.82,590.26,0,18,1
10.99,-2.27,-0.94,-0.39,-0.25,-0.8,1010.99,1402.46,0,18,1
9.25,3.71,-1.9,-1.4,-0.09,-2.38,1758.76,2000.51,1,18,1
2.35,8.17,2.32,0.82,0.06,1.64,1201.22,1303.15,0,19,1
9.47,5.0,-0.91,0.56,0.42,1.03,774.37,936.04,0,19,1
10.21,0.74,-1.07,0.29,-0.15,0.7,719.5,925.04,0,19,1
10.19,-2.48,-1.53,0.11,0.19,0.73,679.07,893.67,0,19,1
9.54,-3.76,-1.49,0.05,-0.04,0.1,519.95,596.37,0,19,1
9.76,-4.21,-1.26,-0.16,0.17,-0.11,441.78,527.45,0,19,1
9.8,0.05,-2.44,-0.78,0.19,-2.01,1736.49,2066.34,1,19,1
1.27,9.96,2.64,0.31,0.05,0.82,1285.19,1497.86,0,20,1
7.24,6.21,-1.02,0.58,0.42,1.54,885.49,1046.65,0,20,1
10.62,-0.57,-1.26,0.58,0.05,1.08,811.97,1063.04,0,20,1
9.27,-3.46,-0.84,0.1,0.18,0.39,611.73,773.88,0,20,1
9.26,-3.48,-0.58,-0.44,0.27,0.04,492.45,559.04,0,20,1
10.06,-2.14,1.28,-0.01,0.4,-0.19,379.91,435.83,0,20,1
9.7,-2.04,1.52,-0.09,0.09,0.01,0.0,318.02,0,20,1
8.84,3.79,2.12,-0.11,0.0,0.0,411.64,510.8,0,0,1
8.8,3.87,2.04,-0.07,0.05,0.03,0.0,405.35,0,0,1
9.02,4.44,2.07,0.0,-0.16,0.21,0.0,365.99,0,0,1
9.68,2.49,0.69,0.14,-0.03,0.23,547.79,762.57,0,0,1
9.83,1.81,0.27,-0.04,0.02,-0.01,446.18,596.34,0,0,1
9.57,1.7,0.91,-0.28,-0.06,0.16,502.1,760.09,0,0,1
10.61,1.41,0.67,-0.13,-0.13,-0.01,791.94,1161.17,0,0,1
5.79,5.68,0.19,-1.09,-0.04,-2.6,1446.1,1819.33,1,0,1
-3.42,8.0,4.01,0.73,0.36,1.26,813.31,968.03,0,1,1
6.3,7.36,-0.34,-0.0,0.43,1.35,787.34,927.22,0,1,1
9.19,3.41,0.23,0.11,0.3,0.81,748.16,953.76,0,1,1
10.59,0.42,1.02,-0.09,-0.12,-0.01,628.41,751.16,0,1,1
11.2,2.19,-0.69,-0.5,-0.42,-1.05,933.13,1208.63,0,1,1
4.28,7.1,1.36,-0.72,-0.36,-1.96,1443.35,1738.0,1,1,1
-2.22,8.48,2.32,0.81,0.64,1.98,870.91,1063.46,0,2,1
8.88,5.69,-0.61,0.08,-0.0,1.31,935.7,1120.1,0,2,1
10.37,1.14,-0.79,0.09,0.03,0.73,828.93,1075.55,0,2,1
10.88,-0.68,-0.11,-0.05,0.07,0.06,649.74,882.02,0,2,1
11.54,0.19,-1.6,-0.37,-0.13,-0.82,1122.11,1430.33,0,2,1
6.86,6.94,-1.74,-1.3,-0.5,-2.61,1576.69,1774.34,1,2,1
0.68,8.31,1.68,0.7,0.34,2.07,1093.4,1219.29,0,3,1
9.38,4.18,-0.73,0.35,-0.05,1.19,1016.46,1239.4,0,3,1
9.55,0.39,-0.24,0.14,0.27,0.92,948.2,1169.94,0,3,1
11.19,-0.74,-0.76,-0.21,-0.03,-0.02,767.79,940.11,0,3,1
9.96,4.68,-1.36,-1.05,-0.27,-2.01,1316.96,1608.43,1,3,1
-2.66,7.83,3.74,0.49,0.62,0.92,982.72,1214.89,0,4,1
8.13,7.77,-1.33,0.44,-0.14,1.56,778.82,902.11,0,4,1
9.99,3.76,-1.29,0.36,0.35,1.05,812.29,975.68,0,4,1
10.86,-0.25,-0.5,-0.11,0.07,-0.15,646.52,781.14,0,4,1
10.84,1.88,-1.53,-0.68,-0.43,-1.57,1188.72,1564.17,1,4,1
-2.41,6.88,5.13,-0.33,-0.18,-0.17,1256.72,1545.94,1,4,1
3.7,8.16,1.08,0.87,0.69,1.97,862.74,1006.94,0,5,1
9.85,3.62,-0.89,0.37,0.11,1.2,885.97,1127.57,0,5,1
11.22,0.42,-0.82,0.09,0.08,0.47,611.89,744.51,0,5,1
11.06,1.44,-0.62,-0.56,-0.14,-0.99,857.63,1172.47,0,5,1
3.56,7.42,1.55,-1.3,-0.06,-2.7,1388.28,1712.08,1,5,1
1.54,8.4,1.61,1.07,0.34,2.61,969.31,1150.86,0,6,1
9.86,4.47,-0.59,0.48,0.11,0.86,1057.49,1198.29,0,6,1
10.21,2.58,-0.84,0.09,0.26,0.67,793.91,939.7,0,6,1
10.18,0.99,0.12,-0.18,-0.1,0.22,595.89,757.54,0,6,1
10.47,3.16,-1.2,-0.59,-0.2,-1.67,1040.85,1369.66,0,6,1
1.35,8.22,1.88,-1.2,0.13,-2.1,1398.8,1681.97,1,6,1
2.84,8.0,1.85,0.8,0.08,2.22,944.42,1064.73,0,7,1
9.18,5.16,0.24,0.36,0.11,0.94,891.98,1054.83,0,7,1
10.27,1.51,-0.28,0.11,0.07,0.62,770.18,953.15,0,7,1
10.28,1.12,-0.43,-0.13,0.05,-0.04,694.88,893.65,0,7,1
10.26,4.47,-0.85,-0.88,-0.23,-1.78,1116.94,1480.84,0,7,1
1.38,8.82,1.45,-1.28,0.17,-2.28,1307.15,1585.0,1,7,1
3.33,9.2,0.25,0.84,0.09,2.36,814.76,943.48,0,8,1
9.05,4.59,0.13,0.23,0.18,0.85,820.54,958.62,0,8,1
10.25,1.41,0.38,-0.0,-0.03,0.42,620.13,782.07,0,8,1
11.07,1.11,-0.44,-0.21,-0.1,-0.21,599.01,752.35,0,8,1
8.02,5.01,0.5,-0.96,-0.26,-2.23,1375.86,1685.99,1,8,1
-0.72,8.59,3.25,0.86,0.15,1.95,845.64,975.24,0,9,1
8.75,4.9,0.68,0.25,0.11,1.13,804.88,1002.94,0,9,1
10.06,1.56,-0.74,0.26,-0.06,0.66,803.24,1046.04,0,9,1
10.92,1.24,-0.64,-0.22,0.15,-0.12,600.12,694.63,0,9,1
7.65,5.48,0.16,-1.01,0.09,-2.34,1390.8,1771.23,1,9,1
-1.41,7.65,3.87,0.68,0.04,1.58,933.2,1150.32,0,10,1
6.53,7.34,0.57,0.43,0.38,1.67,831.51,949.17,0,10,1
9.6,3.33,-0.4,0.14,-0.07,0.81,680.87,777.01,0,10,1
10.2,1.36,-0.74,-0.15,-0.05,-0.03,581.37,740.02,0,10,1
11.77,1.76,-1.36,-0.17,-0.03,-0.6,830.56,1136.42,0,10,1
4.39,7.77,1.66,-1.11,-0.4,-2.5,1559.51,1848.88,1,10,1
2.65,8.9,1.88,0.71,0.15,2.26,844.83,997.87,0,11,1
8.53,5.75,0.48,0.43,-0.06,1.05,800.91,957.6,0,11,1
2.0,1.57,0.21,0.1,0.01,0.53,713.23,950.58,0,11,1
11.29,0.96,-0.36,-0.24,-0.01,-0.09,759.24,979.25,0,11,1
8.15,6.15,0.25,-1.15,-0.06,-2.58,1446.87,1751.05,1,11,1
-0.44,7.61,3.22,0.94,0.68,1.95,1014.99,1172.78,0,12,1
8.74,4.42,-0.48,0.37,0.06,1.48,862.5,1104.05,0,12,1
10.87,0.66,-0.8,0.09,0.18,0.42,850.21,1054.52,0,12,1
10.45,0.72,-1.0,-0.22,-0.06,-0.19,685.2,829.99,0,12,1
10.11,4.57,-0.86,-0.75,-0.13,-2.05,1307.11,1649.96,1,12,1
-1.9,8.68,3.81,0.4,0.34,1.12,906.15,1127.76,0,13,1
38.0,7.11,0.11,0.44,0.04,1.67,879.69,1016.24,0,13,1
10.78,2.16,-1.06,0.26,-0.27,0.55,722.55,890.22,0,13,1
10.08,1.52,-0.7,-0.12,0.08,-0.0,653.63,818.15,0,13,1
11.45,1.95,-1.34,-0.26,0.05,-0.82,747.58,1030.72,0,13,1
2.15,6.17,1.06,-1.18,-0.2,-2.49,1262.91,1617.91,1,13,1
-0.92,7.54,2.9,0.98,0.83,1.99,852.63,1057.52,0,14,1
8.17,5.21,-0.0,0.23,0.02,1.33,762.47,884.29,0,14,1
10.27,2.41,-1.02,0.1,0.13,0.42,677.36,904.09,0,14,1
11.08,1.8,-1.09,-0.25,-0.09,-0.2,718.4,963.29,0,14,1
7.43,5.76,0.54,-1.06,0.04,-2.22,1237.94,1542.74,1,14,1
-1.08,8.0,3.95,0.71,0.44,1.57,908.17,1078.03,0,15,1
8.07,6.42,0.87,0.49,0.15,1.25,707.05,927.12,0,15,1
10.22,3.03,-0.74,0.26,0.02,0.62,674.09,876.09,0,15,1
10.47,1.18,-0.24,-0.06,0.03,0.16,518.44,693.67,0,15,1
10.18,2.54,-0.2,-0.53,-0.17,-1.17,816.71,1206.72,0,15,1
2.45,6.83,1.97,-1.18,-0.17,-2.49,1421.9,1768.97,1,15,1
1.93,8.35,1.97,0.92,-0.03,2.27,846.22,948.9,0,16,1
9.08,4.72,-0.59,0.41,0.17,1.14,845.88,1038.35,0,16,1
11.04,1.17,-0.61,0.03,0.2,0.24,648.2,761.5,0,16,1
10.94,1.72,-0.97,-0.53,-0.09,-0.91,1151.92,1520.08,1,16,1
2.45,6.81,2.34,-1.04,-0.2,-2.85,1651.33,1902.59,1,16,1
6.44,6.52,-1.08,0.51,-0.07,2.34,1057.64,1207.25,0,17,1
11.46,-1.24,-2.54,0.14,0.03,1.1,1275.4,1510.11,1,17,1
9.62,-1.88,-2.98,-0.07,0.26,0.02,932.07,1117.62,0,18,1
12.38,-0.14,-2.82,-0.62,-0.38,-1.37,1078.42,1321.73,0,18,1
3.18,7.43,1.34,-1.45,-0.22,-2.34,1346.13,1558.43,1,18,1
5.93,7.15,-0.46,1.18,0.61,2.19,1240.32,1364.79,0,19,1
9.99,0.3,-2.18,0.29,0.24,0.98,1109.57,1327.72,0,19,1
9.79,-0.81,-1.61,-0.07,0.02,-0.11,871.36,1042.58,0,19,1
10.54,-0.51,-1.42,0.02,0.01,-0.15,1067.99,1282.99,0,19,1
8.75,4.95,-2.94,-1.25,-0.12,-2.22,1613.17,1791.0,1,19,1
3.82,6.84,0.89,1.02,0.37,2.57,1245.46,1391.01,0,20,1
11.08,0.4,-2.0,0.22,-0.09,1.15,1024.6,1254.31,0,20,1
10.41,-1.44,-1.8,-0.09,0.01,-0.04,764.32,905.2,0,20,1
10.24,-1.04,-1.47,-0.15,0.06,-0.36,833.05,1032.68,0,20,1
7.41,3.83,-0.51,-0.98,-0.23,-1.79,1388.73,1656.73,1,20,1
1.08,9.32,3.09,0.14,-0.1,0.72,1190.37,1346.8,0,21,1
9.47,5.37,-1.59,0.87,0.36,1.46,812.92,997.21,0,21,1
10.82,0.06,-1.61,0.22,0.06,0.21,800.17,956.4,0,21,1
10.34,-0.3,-1.27,-0.11,-0.0,0.05,637.83,714.54,0,21,1
10.08,-0.43,-1.09,-0.11,0.09,-0.07,590.59,729.48,0,21,1
10.13,-0.03,-1.4,-0.17,0.08,-0.04,517.88,669.8,0,21,1
10.26,0.54,-0.13,-0.53,0.24,-0.1,501.55,553.94,0,21,1
10.21,0.66,0.46,-0.05,0.09,-0.0,370.42,425.21,0,21,1
10.14,-0.83,-0.51,-0.05,0.02,0.06,357.22,506.17,0,0,1
10.13,-0.87,-0.68,-0.08,0.06,-0.0,315.83,477.78,0,0,1
10.43,-0.73,-0.86,-0.16,0.07,-0.04,582.69,839.87,0,0,1
10.47,1.45,-1.74,-0.44,0.01,-1.44,1309.76,1671.71,1,0,1
-0.28,10.87,2.4,-0.02,0.3,0.11,1369.65,1667.44,1,0,1
6.04,7.84,-0.96,0.78,0.55,1.65,830.69,984.24,0,1,1
10.05,2.81,-0.83,-0.08,0.09,0.45,677.51,802.66,0,1,1
9.83,1.84,-0.65,-0.07,0.05,0.06,598.89,731.84,0,1,1
10.04,1.38,-0.91,-0.11,0.0,0.07,524.47,705.29,0,1,1
10.14,1.44,-0.85,-0.06,0.01,0.04,559.6,699.57,0,1,1
10.28,1.35,-0.71,-0.11,0.08,0.22,385.09,457.69,0,1,1
10.0,-1.81,-0.98,-0.04,0.05,0.12,762.34,1090.38,0,1,1
8.59,5.71,-2.77,-1.4,-0.38,-2.92,1634.43,1995.71,1,1,1
1.05,7.82,1.05,1.28,0.53,2.17,949.04,1073.82,0,2,1
10.29,3.6,-2.07,0.11,0.52,1.32,746.2,913.56,0,2,1
10.3,0.27,-0.64,0.09,0.11,0.27,745.07,904.45,0,2,1
10.26,-0.65,-0.65,-0.15,0.05,0.22,507.06,579.21,0,2,1
11.56,-1.02,-0.87,-0.2,0.02,-0.45,733.91,999.34,0,2,1
5.48,4.45,-0.37,-1.64,-0.21,-3.01,1431.86,1770.84,1,2,1
3.37,8.33,1.18,1.06,0.34,2.67,834.53,1022.23,0,3,1
11.82,1.59,-0.68,0.33,0.31,1.15,815.95,1022.65,0,3,1
10.9,-0.45,-0.11,-0.04,0.03,0.42,657.37,822.01,0,3,1
9.69,-0.01,-0.48,-0.08,-0.0,-0.04,642.85,781.02,0,3,1
10.47,2.79,-2.02,-1.15,-0.73,-2.4,1333.81,1723.33,1,3,1
2.11,7.88,2.01,1.31,0.28,2.8,920.09,1119.04,0,4,1
11.34,1.39,-1.59,0.21,0.28,1.27,894.77,1109.83,0,4,1
9.92,-0.75,-0.87,-0.22,-0.05,0.0,733.95,870.98,0,4,1
11.23,-0.81,-2.19,-0.16,-0.09,-0.49,794.1,1049.88,0,4,1
4.36,5.48,0.03,-1.77,-0.73,-2.76,1611.72,1868.49,1,4,1
3.02,7.84,0.88,1.25,0.32,2.71,1064.43,1214.43,0,5,1
11.45,0.86,-0.52,0.32,-0.01,1.35,825.06,1071.28,0,5,1
10.74,-0.92,-0.39,-0.07,0.05,0.02,734.12,892.81,0,5,1
9.94,-0.69,0.05,-0.12,-0.35,0.03,692.15,815.65,0,5,1
11.68,1.43,-1.1,-0.67,-0.37,-1.95,1481.03,1800.46,1,5,1
3.36,8.27,1.58,1.21,0.57,2.38,1217.6,1404.79,0,6,1
10.59,2.22,-0.57,0.24,0.01,1.11,903.47,1045.9,0,6,1
10.33,-0.51,-0.52,0.0,-0.04,0.21,676.61,841.32,0,6,1
10.42,-1.11,-0.54,-0.12,-0.0,0.13,629.82,746.2,0,6,1
12.07,2.15,-1.02,-0.83,-0.67,-2.2,1369.74,1729.59,1,6,1
0.91,8.54,2.93,0.95,0.7,2.18,1179.2,1373.82,0,7,1
9.93,2.2,-0.17,0.44,0.33,1.88,808.08,1001.35,0,7,1
10.35,-1.07,-0.71,-0.03,0.03,0.13,671.87,779.8,0,7,1
10.43,-1.41,-0.42,-0.17,-0.04,0.04,581.8,672.99,0,7,1
10.5,2.11,-1.31,-0.93,-0.21,-2.26,1458.8,1805.11,1,7,1
3.77,7.67,1.56,1.49,0.53,2.67,899.68,1070.25,0,8,1
10.5,0.73,-0.25,0.24,-0.09,1.02,686.08,871.53,0,8,1
9.94,-0.91,-0.67,-0.22,-0.05,-0.04,663.99,783.82,0,8,1
10.78,-0.86,-1.07,-0.17,0.03,-0.08,548.33,742.77,0,8,1
10.09,4.74,-1.84,-1.2,-0.23,-2.52,1490.05,1825.52,1,8,1
4.23,8.73,0.29,1.26,0.71,2.26,928.3,1068.13,0,9,1
9.95,3.65,-1.38,0.4,0.17,1.24,867.7,1079.23,0,9,1
10.52,0.29,-0.67,-0.02,-0.02,0.37,574.76,655.08,0,9,1
11.15,0.17,-0.72,-0.11,-0.09,-0.23,689.34,928.57,0,9,1
9.78,5.01,-0.14,-0.87,-0.58,-2.24,1557.43,1884.05,1,9,1
0.71,8.07,2.73,1.09,0.37,2.14,958.59,1154.5,0,10,1
10.28,3.73,-0.45,0.39,0.16,1.32,914.41,1098.4,0,10,1
10.24,0.18,-0.87,0.12,0.02,0.66,835.11,967.6,0,10,1
11.93,-0.05,-2.02,-0.25,0.04,-0.26,747.79,1066.67,0,10,1
9.31,5.21,-1.09,-1.04,-0.39,-2.24,1354.16,1695.83,1,10,1
2.75,8.57,1.41,1.07,0.1,2.39,1054.61,1214.86,0,11,1
9.81,2.62,-0.64,0.35,-0.02,1.11,773.37,959.18,0,11,1
9.99,-1.13,-1.69,0.27,-0.09,0.8,695.08,907.35,0,11,1
11.36,-1.12,-1.62,-0.38,-0.01,-0.69,944.16,1276.89,0,11,1
5.73,6.97,-0.31,-1.72,-0.88,-2.49,1479.73,1756.47,1,11,1
6.91,7.47,-0.11,1.13,0.33,2.04,1075.82,1196.93,0,12,1
9.8,2.04,-1.02,0.37,0.2,1.04,739.8,912.32,0,12,1
10.75,-1.03,-1.34,0.06,0.02,0.2,647.1,767.11,0,12,1
12.02,-0.14,-1.6,-0.27,0.18,-0.85,978.33,1263.78,0,12,1
7.59,6.88,-1.02,-1.34,-0.61,-2.4,1341.02,1647.81,1,12,1
6.79,7.41,0.15,0.86,0.24,2.33,999.34,1193.97,0,13,1
10.99,1.71,1.15,0.27,-0.53,0.73,904.15,1096.7,0,13,1
10.06,-1.1,-0.41,0.12,0.13,0.33,654.99,772.33,0,13,1
11.23,-1.25,-1.05,-0.3,-0.12,-0.06,799.66,1085.1,0,13,1
8.72,3.51,-2.2,-1.24,-0.0,-2.33,1427.29,1745.37,1,13,1
3.22,9.29,1.1,0.89,0.5,2.09,1061.32,1202.28,0,14,1
9.44,3.38,-0.11,0.34,0.21,1.04,865.65,1084.66,0,14,1
10.49,0.25,-1.29,0.28,-0.03,0.54,728.45,899.15,0,14,1
10.65,-0.94,-1.05,-0.1,0.03,-0.01,705.17,855.34,0,14,1
10.44,1.51,-1.51,-0.86,0.09,-1.78,1146.1,1478.16,0,14,1
1.13,8.2,2.44,-1.25,0.2,-2.1,1526.64,1775.8,1,14,1
8.56,5.78,-0.61,0.42,0.03,1.64,1078.42,1207.0,0,15,1
10.02,0.44,-0.43,0.22,-0.17,0.69,862.26,1068.93,0,15,1
10.44,-0.69,-0.86,-0.01,0.09,0.16,688.04,796.53,0,15,1
11.52,-0.42,-0.86,-0.2,-0.12,-0.61,832.07,1147.36,0,15,1
7.13,6.79,0.12,-1.35,-0.22,-2.42,1545.12,1815.08,1,15,1
5.86,7.51,0.51,0.74,0.05,2.24,1013.91,1130.94,0,16,1
10.65,2.16,-0.58,0.26,-0.09,0.94,869.02,1034.8,0,16,1
10.47,-0.94,-0.5,0.05,0.03,0.31,813.83,962.45,0,16,1
10.4,-0.55,-0.9,-0.21,0.0,-0.07,672.09,876.48,0,16,1
8.91,3.53,-1.78,-0.7,0.16,-1.94,1416.79,1744.9,1,16,1
3.11,8.54,1.21,1.0,0.2,2.41,1109.56,1296.87,0,17,1
10.04,1.96,-0.39,0.33,-0.04,1.22,952.78,1172.86,0,17,1
10.48,-0.51,-0.7,0.07,-0.02,0.48,647.21,716.45,0,17,1
10.49,-1.31,-1.12,-0.18,0.06,-0.07,673.57,848.16,0,17,1
11.25,0.96,-1.03,-0.73,-0.33,-1.92,1555.24,1890.06,1,17,1
2.22,8.21,2.99,1.14,0.43,1.98,1041.25,1217.95,0,18,1
10.46,2.36,-1.23,0.3,0.08,1.32,1020.03,1240.52,0,18,1
10.41,-2.55,0.25,0.07,0.3,0.56,716.33,785.79,0,18,1
10.21,-2.26,-0.22,-0.12,0.0,-0.17,561.47,748.14,0,18,1
12.04,0.03,-1.73,-0.4,-0.54,-1.08,940.24,1285.62,0,18,1
3.94,9.07,1.09,-1.65,0.12,-2.96,1503.93,1826.82,1,18,1
8.67,5.49,-0.51,0.99,0.36,2.01,1022.05,1155.69,0,19,1
10.11,-0.26,-0.53,0.21,0.04,0.87,816.9,1057.2,0,19,1
9.8,-1.52,-0.13,-0.09,0.03,0.05,572.85,642.88,0,19,1
10.58,-1.65,-0.55,-0.12,-0.06,-0.12,588.51,796.01,0,19,1
10.41,3.8,-1.09,-0.79,-0.22,-1.93,1393.49,1761.94,1,19,1
2.92,7.07,2.17,1.45,0.94,2.32,1053.74,1279.09,0,20,1
10.54,1.86,-0.87,0.22,0.18,1.22,748.83,906.19,0,20,1
10.7,-1.26,-0.46,-0.02,0.1,0.06,477.22,577.45,0,20,1
10.22,-1.44,-0.28,-0.07,0.07,-0.03,460.32,552.56,0,20,1
11.39,-0.69,-0.58,-0.41,0.06,-1.25,827.94,1171.49,0,20,1
6.17,8.52,0.18,-1.53,-0.04,-2.64,1545.87,1853.93,1,20,1
9.15,6.15,-0.06,0.62,-0.09,2.17,961.45,1079.22,0,21,1
9.76,0.79,-0.1,0.34,-0.33,1.1,808.78,933.02,0,21,1
10.31,-1.34,-0.06,-0.04,0.03,0.11,479.28,563.86,0,21,1
10.19,-1.53,-0.4,-0.12,-0.03,-0.07,463.55,586.08,0,21,1
10.23,-0.1,-2.06,-0.7,-0.27,-1.11,1090.81,1546.65,1,21,1
-1.0,8.07,4.79,0.41,0.61,1.05,1339.56,1611.24,1,21,1
10.96,3.4,-0.85,0.33,0.07,1.46,816.48,1023.57,0,22,1
10.91,-0.39,-0.89,0.17,0.12,0.64,686.36,733.9,0,22,1
10.61,-1.08,-0.17,-0.19,0.04,-0.1,486.85,585.4,0,22,1
10.47,2.88,-1.04,-0.95,-0.34,-1.79,1205.33,1623.88,1,22,1
2.19,7.09,2.47,1.15,0.75,2.13,1068.56,1280.32,0,23,1
9.81,2.88,-0.37,0.48,0.11,1.29,688.83,920.27,0,23,1
9.46,-0.34,-0.6,-0.03,-0.07,0.02,516.66,609.25,0,23,1
10.36,-0.47,-0.48,-0.11,0.05,0.04,477.9,546.11,0,23,1
10.72,2.01,-0.8,-0.82,0.03,-1.68,1419.2,1832.04,1,23,1
0.93,8.07,4.13,0.76,0.54,1.44,1039.77,1240.73,0,24,1
9.83,4.06,-0.8,0.38,0.1,1.3,773.8,968.34,0,24,1
10.31,0.12,-0.13,0.16,0.38,0.59,600.06,702.99,0,24,1
9.99,-0.53,0.16,-0.15,0.05,-0.13,466.95,578.57,0,24,1
10.31,3.3,-1.34,-1.19,-0.46,-2.11,1589.56,1892.17,1,24,1
0.64,7.66,3.5,0.75,0.41,1.68,1187.9,1337.74,0,25,1
31.0,4.91,0.74,0.29,0.18,1.0,919.55,1127.37,0,25,1
9.9,1.68,0.34,0.05,-0.18,1.11,700.38,875.13,0,25,1
9.84,-0.06,1.16,-0.14,0.12,0.06,595.99,645.07,0,25,1
9.98,-0.01,1.2,-0.07,0.03,0.01,362.92,419.88,0,25,1
