ax,ay,az,gx,gy,gz,mav,rms,label_kontraksi,repetisi,id_orang
-4.31,-2.34,7.72,-0.07,0.06,0.04,0.0,0.0,0,0,1
-4.41,-2.27,7.86,-0.08,-0.01,0.15,0.0,0.0,0,0,1
-4.13,-2.52,7.62,-0.02,0.07,0.0,0.0,0.0,0,0,1
-4.6,-2.11,7.58,-0.03,0.16,-0.05,0.0,0.0,0,0,1
-4.59,-2.03,7.61,-0.07,0.06,0.01,0.0,0.0,0,0,1
-4.55,-2.01,7.62,-0.07,0.05,0.01,0.0,0.0,0,0,1
-4.72,-1.99,7.6,-0.05,0.07,0.02,0.0,0.0,0,0,1
-6.28,-0.2,6.92,-0.01,0.29,-0.14,0.0,0.0,0,0,1
-5.44,-0.28,8.56,0.3,0.38,-0.13,406.91,515.2,0,0,1
-2.92,6.05,1.75,0.31,-0.48,1.74,456.25,625.91,0,0,1
-4.36,8.63,2.84,0.28,0.24,-0.2,410.77,559.98,0,0,1
-2.49,10.28,2.27,-0.03,0.02,0.12,0.0,306.63,0,0,1
-1.88,3.19,2.61,-0.07,-0.52,-0.04,726.03,904.95,0,0,1
-1.71,11.04,2.71,-0.01,0.23,-0.43,630.0,750.91,0,0,1
-1.88,9.3,1.57,0.07,0.15,0.13,451.96,510.66,0,0,1
0.05,9.69,2.13,-0.06,-0.65,0.03,435.15,542.32,0,0,1
-0.45,4.64,2.03,0.2,0.65,1.12,1288.07,1647.86,1,0,1
0.35,10.69,0.06,-0.07,-0.08,-0.23,650.23,714.7,0,1,1
0.22,12.08,2.02,-0.17,-0.38,0.43,538.56,592.68,0,1,1
0.18,6.04,1.26,-0.06,0.1,-0.25,658.13,924.81,0,1,1
-0.48,11.67,0.8,-0.29,0.57,-0.45,866.48,1196.19,0,1,1
-1.9,10.08,2.39,0.09,0.06,0.27,476.12,565.14,0,1,1
-0.45,8.17,1.22,0.05,-0.67,-0.4,555.85,657.19,0,1,1
-0.34,6.77,1.6,0.13,0.77,1.06,701.98,933.11,0,1,1
-0.38,11.52,0.4,-0.06,0.5,-0.71,582.76,722.51,0,1,1
-0.79,11.95,1.57,-0.14,-0.11,0.88,566.89,705.06,0,1,1
1.09,7.95,0.27,-0.18,-0.53,-0.97,837.53,1122.0,0,1,1
-0.95,7.7,0.45,0.33,1.27,0.87,661.87,801.79,0,1,1
0.4,10.85,2.39,-0.11,0.06,-0.32,639.32,882.03,0,1,1
3.35,10.92,0.67,0.12,-0.25,0.83,932.37,1184.41,0,1,1
1.67,5.38,0.71,-0.13,-0.06,0.32,996.12,1191.72,0,1,1
1.79,11.32,1.69,0.21,0.3,-0.68,741.93,880.94,0,1,1
-0.14,9.66,0.06,-0.15,-0.01,-0.1,768.93,1014.61,0,1,1
0.82,10.8,1.07,-0.42,-0.35,0.24,1102.8,1458.11,0,1,1
0.54,5.92,2.15,-0.03,0.23,0.68,1067.03,1242.19,0,1,1
0.19,9.93,1.05,0.01,0.18,-0.13,791.03,904.37,0,1,1
-0.85,9.36,1.05,-0.06,-0.19,0.01,671.54,839.31,0,1,1
-0.11,12.97,1.66,-0.14,-0.11,0.18,1329.68,1650.07,1,1,1
0.94,4.19,1.01,-0.14,0.22,-0.4,1079.85,1210.43,0,2,1
1.52,11.87,0.98,-0.03,0.33,-0.04,932.67,1034.56,0,2,1
-0.66,8.97,1.33,-0.1,-0.22,0.37,790.37,926.12,0,2,1
0.3,11.84,1.52,-0.18,-0.25,0.26,1079.01,1306.76,0,2,1
0.15,6.44,0.95,0.26,-0.6,-1.14,1025.21,1209.13,0,2,1
-0.31,8.16,1.63,-0.08,0.65,0.85,1073.38,1303.9,0,2,1
1.44,12.05,1.09,-0.41,0.31,-0.36,949.2,1134.94,0,2,1
-0.14,9.5,1.16,-0.1,0.14,-0.05,1727.29,1918.5,1,2,1
0.33,10.64,1.11,-0.17,-0.33,-0.08,1333.52,1489.26,0,3,1
-0.27,5.54,1.72,-0.06,0.51,1.08,1232.04,1422.27,0,3,1
-0.23,11.85,2.19,0.33,0.15,-0.65,1018.16,1162.14,0,3,1
-1.62,9.54,0.7,-0.11,0.21,-0.02,1798.3,1931.91,1,3,1
-0.34,11.81,1.44,-0.34,0.03,0.73,1381.35,1552.95,1,3,1
-1.33,6.91,1.46,-0.05,0.69,0.85,1111.79,1318.67,0,4,1
-0.02,10.83,2.2,0.24,0.13,-0.1,980.19,1140.95,0,4,1
-1.18,9.67,-0.17,-0.1,-0.01,0.13,1696.92,1815.8,1,4,1
1.83,13.26,-0.87,-0.24,-0.0,0.75,1367.52,1540.42,1,4,1
1.27,5.54,-0.25,-0.19,-0.23,-0.86,1130.94,1296.3,0,5,1
1.57,10.78,-1.45,-0.62,0.38,-0.04,1055.62,1141.26,0,5,1
0.13,11.58,1.01,-0.06,0.54,-0.22,648.12,744.48,0,5,1
0.11,9.68,0.76,-0.13,0.13,-0.0,509.53,597.79,0,5,1
0.58,11.15,0.21,-0.03,-0.12,0.39,574.83,737.08,0,5,1
-0.92,6.27,0.31,-0.19,0.26,0.78,582.38,660.82,0,5,1
-0.1,11.44,1.2,-0.2,-0.12,-0.27,431.63,505.19,0,5,1
0.09,9.42,0.83,-0.07,0.28,0.09,1216.3,1546.48,1,5,1
1.13,9.34,0.48,-0.44,-0.68,-0.32,809.99,949.54,0,6,1
-0.67,6.32,2.25,0.06,0.32,1.16,699.9,874.73,0,6,1
46.0,11.08,1.33,0.14,-0.1,0.37,584.2,654.31,0,6,1
2.84,9.3,0.5,-0.04,0.16,-0.06,738.48,850.73,0,6,1
3.65,12.55,0.74,-0.07,-0.07,0.15,684.85,778.38,0,6,1
1.13,6.57,-0.12,-0.03,-0.1,-1.15,830.7,1072.81,0,6,1
0.34,9.13,0.84,0.09,0.51,0.89,598.82,669.01,0,6,1
7.44,10.46,1.1,0.07,0.42,0.45,608.35,739.24,0,6,1
4.13,8.94,0.82,0.01,0.18,-0.17,483.06,546.62,0,6,1
4.36,12.54,1.34,-0.57,-0.08,-0.04,647.45,785.54,0,6,1
0.11,4.75,1.08,-0.12,-0.05,-0.41,871.03,1143.15,0,6,1
1.21,10.55,0.82,-0.25,0.48,0.11,608.67,738.23,0,6,1
1.41,9.53,0.52,-0.05,0.07,-0.04,659.11,827.74,0,6,1
1.05,10.24,1.15,-0.11,-0.05,0.01,935.64,1054.83,0,6,1
1.7,7.67,1.63,0.07,-0.94,-1.1,864.83,1076.85,0,6,1
0.47,6.58,0.63,-0.11,0.48,1.03,663.93,840.49,0,6,1
0.06,11.34,0.4,0.2,0.33,-0.03,622.32,732.36,0,6,1
0.74,9.8,-0.06,-0.27,0.05,-0.09,742.84,798.76,0,6,1
1.28,12.06,1.03,-0.21,-0.06,0.37,693.78,812.49,0,6,1
0.18,6.18,0.59,0.17,-0.64,-1.65,676.36,827.01,0,6,1
0.09,10.9,1.52,-0.07,0.51,0.38,784.62,945.29,0,6,1
1.0,12.33,1.02,-0.07,0.65,0.11,710.4,815.08,0,6,1
0.73,10.66,0.7,-0.13,0.01,0.25,837.25,1023.24,0,6,1
1.53,8.18,1.18,-0.31,-0.81,-0.9,713.69,810.36,0,6,1
-1.12,7.47,1.89,0.1,0.76,1.46,703.43,874.24,0,6,1
1.64,11.28,2.35,0.49,0.26,-0.33,662.51,796.49,0,6,1
1.61,9.66,0.89,-0.13,0.14,0.01,1450.76,1729.57,1,6,1
3.07,13.99,1.9,-0.07,-0.27,0.52,1166.76,1373.09,0,7,1
-0.23,5.55,1.29,-0.32,-0.17,-0.51,804.19,960.14,0,7,1
2.08,11.7,0.68,0.17,0.04,-0.08,688.83,789.76,0,7,1
0.39,9.72,-0.37,-0.14,-0.1,-0.03,1285.85,1587.97,1,7,1
-0.5,9.82,0.18,-0.15,0.09,0.08,1617.64,1826.24,1,7,1
-0.06,5.01,1.8,-0.23,-0.5,-1.11,1016.24,1139.25,0,8,1
-0.08,10.64,2.51,-0.22,0.32,0.07,786.88,874.5,0,8,1
0.28,10.1,0.94,0.11,0.3,-0.11,1233.11,1544.6,1,8,1
-0.6,11.19,1.02,-0.08,0.15,0.21,1671.91,1831.86,1,8,1
0.25,7.41,-0.22,-0.02,-0.7,-1.0,1146.03,1262.16,0,9,1
-0.06,6.63,2.62,-0.54,0.37,0.95,855.98,982.8,0,9,1
1.27,11.84,0.99,0.52,0.33,-0.45,798.02,1018.28,0,9,1
-1.36,10.01,0.05,-0.13,0.06,0.08,930.33,1187.16,0,9,1
1.55,12.65,2.08,-0.19,-0.77,0.24,1090.79,1259.72,0,9,1
-0.94,6.14,1.19,-0.19,0.17,0.65,785.71,932.92,0,9,1
1.52,11.09,2.62,0.12,0.16,-0.18,671.39,762.59,0,9,1
-1.36,9.9,0.33,-0.21,0.44,-0.09,1181.3,1453.26,0,9,1
0.06,12.23,0.8,-0.48,-0.01,0.52,945.46,1035.48,0,9,1
-0.21,7.21,1.31,0.11,-1.39,-1.07,872.37,1003.4,0,9,1
-0.71,7.47,1.77,-0.35,0.52,1.05,730.01,804.0,0,9,1
-1.12,10.64,-0.26,0.41,0.08,-0.32,542.54,645.23,0,9,1
-0.48,9.48,0.62,-0.16,0.15,0.08,882.53,1070.66,0,9,1
0.21,12.14,1.26,-0.5,-0.25,0.19,930.47,1036.95,0,9,1
-1.13,5.33,0.95,-0.11,-0.22,-0.57,719.13,812.87,0,9,1
-0.33,10.62,1.61,-0.21,0.37,0.22,581.42,656.82,0,9,1
0.41,10.07,1.32,-0.02,0.29,0.06,1131.31,1468.01,0,9,1
0.29,11.96,2.32,-0.26,-0.03,0.29,1379.14,1640.64,1,9,1
-1.45,5.82,1.45,-0.38,0.18,0.55,921.19,1075.83,0,10,1
2.04,10.37,1.75,0.47,0.35,0.21,771.79,885.92,0,10,1
0.42,9.82,0.22,-0.34,-0.29,-0.25,705.18,805.16,0,10,1
-1.07,9.49,2.13,-0.11,0.19,-0.12,712.62,830.99,0,10,1
-0.56,9.34,1.89,-0.03,0.06,-0.02,718.03,798.32,0,10,1
4.63,-3.66,7.1,0.39,0.89,0.02,0.0,323.37,0,0,1
-7.35,0.02,8.39,2.16,-0.01,1.34,0.0,0.0,0,0,1
2.94,7.18,-0.67,1.96,-0.28,0.49,523.74,845.01,0,0,1
5.31,7.39,-2.11,-0.56,-0.41,0.86,893.08,1118.83,0,0,1
7.25,8.63,-1.42,-0.79,-0.42,-0.46,1065.18,1341.69,0,0,1
-4.33,5.59,2.01,-1.03,0.01,-2.87,1148.9,1446.74,0,0,1
-7.75,3.0,4.27,0.22,0.2,0.85,785.47,861.5,0,0,1
2.77,9.13,0.43,0.5,-0.1,2.0,1142.65,1523.03,1,0,1
7.36,7.15,0.53,-0.17,0.1,-0.01,1771.4,1934.06,1,0,1
3.66,8.81,0.57,-0.57,-0.11,-2.31,1481.3,1552.76,1,0,1
-6.88,6.29,3.16,-0.32,0.15,0.11,1364.65,1511.74,1,0,1
0.99,8.91,1.19,0.6,0.25,1.9,962.0,1087.03,0,1,1
7.7,7.08,-0.27,-0.07,0.53,0.32,950.41,1105.25,0,1,1
8.21,8.08,-0.16,-0.16,-0.21,-0.34,996.63,1118.63,0,1,1
-0.39,8.21,0.95,-1.0,-0.16,-2.03,1244.22,1432.46,0,1,1
-5.67,6.44,3.9,-0.0,-0.19,1.19,889.69,1014.5,0,1,1
5.38,9.01,-0.54,0.66,-0.15,1.85,886.83,1126.62,0,1,1
8.24,6.35,0.5,-0.04,-0.08,-0.17,721.7,855.28,0,1,1
8.19,6.23,-0.26,-0.06,-0.05,-0.01,793.26,867.79,0,1,1
6.05,8.2,-0.87,-0.76,-0.37,-2.15,719.62,862.14,0,1,1
-5.23,6.2,3.07,-0.73,-0.31,-2.15,778.3,1062.32,0,1,1
-5.96,5.18,4.06,0.09,-0.2,0.83,758.23,929.72,0,1,1
2.52,9.56,1.01,0.48,0.13,1.14,1226.07,1436.93,0,1,1
0.34,6.76,0.51,-0.05,0.37,-0.17,820.94,936.7,0,1,1
6.66,7.41,0.42,-0.05,0.15,-0.0,600.14,688.74,0,1,1
2.17,8.92,0.17,-0.65,0.1,-2.08,1180.78,1463.08,0,1,1
-6.28,6.07,3.45,-0.31,0.27,-0.23,1005.3,1236.19,0,1,1
-1.76,8.05,2.38,0.82,0.31,2.04,909.02,1082.07,0,1,1
7.59,8.31,-0.53,-0.05,0.42,0.99,789.11,907.17,0,1,1
6.2,7.99,-0.2,-0.1,0.07,0.13,551.83,643.08,0,1,1
4.43,8.59,-0.43,-0.63,0.18,-1.75,1063.07,1292.93,0,1,1
-5.78,5.51,3.01,-0.36,-0.01,-1.53,1254.35,1479.02,0,1,1
-5.99,4.66,2.91,0.25,-0.05,1.93,826.89,964.84,0,1,1
4.44,10.75,-0.45,0.22,-0.01,1.18,586.39,699.74,0,1,1
5.53,7.6,0.33,-0.22,0.06,-0.13,904.06,1037.63,0,1,1
6.94,9.03,-0.29,-0.44,-0.12,-0.89,930.88,1081.87,0,1,1
-3.23,6.68,2.61,-0.95,-0.07,-1.85,1185.47,1385.64,0,1,1
-6.15,5.34,4.65,0.01,-0.1,0.8,769.0,883.8,0,1,1
3.95,8.58,1.09,0.76,0.02,1.79,1335.45,1603.96,1,1,1
7.07,7.69,0.56,-0.14,-0.08,0.16,807.46,904.04,0,2,1
8.16,7.98,0.03,-0.33,-0.37,-1.17,902.34,1018.86,0,2,1
-4.96,5.87,2.72,-0.64,-0.21,-2.41,741.6,895.35,0,2,1
-7.16,4.12,3.91,-0.07,-0.41,0.67,689.45,857.58,0,2,1
-1.09,8.37,2.21,0.59,0.1,2.22,1067.28,1347.83,0,2,1
6.11,8.82,1.29,-0.19,0.1,0.36,1091.55,1300.88,0,2,1
4.27,8.54,1.85,-0.06,0.05,0.14,754.44,831.92,0,2,1
3.0,9.08,1.4,-0.43,-0.02,-1.86,840.24,994.71,0,2,1
-5.63,5.48,4.48,-0.38,0.15,-0.69,902.38,1114.46,0,2,1
-4.18,6.48,3.68,0.56,0.35,2.47,890.43,1044.3,0,2,1
6.07,9.55,0.67,0.18,0.45,0.84,933.81,1105.64,0,2,1
4.79,8.39,1.48,-0.11,0.1,0.06,551.76,666.11,0,2,1
6.65,8.74,1.23,-0.17,-0.25,-0.16,822.33,983.75,0,2,1
-2.49,7.07,3.02,-0.64,-0.27,-2.27,1096.54,1290.77,0,2,1
-7.56,5.73,4.09,-0.06,0.04,0.65,845.51,960.76,0,2,1
0.92,8.79,1.74,0.6,0.02,1.86,642.89,742.55,0,2,1
5.34,8.2,1.13,-0.05,0.26,0.06,860.39,1017.55,0,2,1
5.1,8.37,1.07,0.01,-0.07,0.16,920.26,1082.19,0,2,1
1.79,8.26,0.44,-0.62,-0.14,-2.34,1051.64,1284.59,0,2,1
-6.43,6.45,3.07,-0.16,0.05,0.2,874.58,1053.89,0,2,1
2.62,9.65,1.33,0.7,0.08,1.5,622.14,748.79,0,2,1
6.16,6.76,0.68,-0.01,0.19,-0.4,715.92,851.14,0,2,1
6.04,7.66,1.17,-0.07,0.08,-0.06,875.9,917.63,0,2,1
4.36,9.0,0.7,-0.27,0.01,-1.96,1027.78,1229.74,0,2,1
-6.26,6.43,3.24,-0.27,0.14,0.14,812.55,967.2,0,2,1
1.89,9.54,1.69,0.5,0.32,1.73,727.88,886.22,0,2,1
5.61,7.44,1.31,-0.02,0.11,-0.22,714.62,838.72,0,2,1
4.95,8.07,1.52,0.0,0.01,0.12,910.32,1021.24,0,2,1
5.87,9.54,1.29,-0.1,-0.18,-1.19,934.36,1101.99,0,2,1
-4.16,4.96,3.19,-0.42,0.45,-2.28,801.48,979.36,0,2,1
-0.67,7.52,2.1,0.5,0.42,2.78,950.44,1190.01,0,2,1
8.17,7.51,0.66,0.02,0.08,0.24,828.63,1020.81,0,2,1
6.08,7.95,0.86,-0.17,0.14,0.15,731.94,805.98,0,2,1
4.47,9.09,0.55,-0.45,0.23,-1.83,773.61,908.11,0,2,1
-4.48,6.31,3.45,-0.17,0.16,-0.96,697.79,886.31,0,2,1
1.31,8.97,2.01,0.56,0.65,1.79,1092.2,1409.51,0,2,1
7.94,7.92,0.25,-0.17,0.52,0.06,887.86,1073.18,0,2,1
5.6,8.29,1.82,-0.02,-0.11,0.04,692.32,760.56,0,2,1
7.51,9.11,0.51,-0.1,-0.51,-0.12,535.9,625.98,0,2,1
-3.25,4.94,1.26,-0.74,0.02,-2.67,980.34,1204.26,0,2,1
-1.64,7.61,1.66,0.44,0.33,2.46,883.52,1151.72,0,2,1
9.13,8.43,-0.58,0.04,0.39,0.31,827.74,970.95,0,2,1
4.96,9.0,1.19,-0.15,0.23,0.25,699.23,793.16,0,2,1
7.27,9.09,1.08,-0.16,-0.2,-0.43,552.01,644.6,0,2,1
-3.19,5.39,3.25,-0.45,-0.2,-2.45,1288.63,1570.58,1,2,1
0.03,8.9,2.75,0.44,0.3,1.97,1023.39,1241.18,0,3,1
5.14,9.11,1.01,-0.18,-0.21,0.05,967.85,1067.78,0,3,1
4.28,8.61,1.36,-0.18,0.04,0.16,649.38,731.5,0,3,1
5.22,9.86,1.75,-0.76,0.39,-0.96,537.34,634.98,0,3,1
-4.05,6.82,3.9,-0.3,-0.23,-1.89,1306.46,1576.95,1,3,1
-1.71,7.25,3.18,0.49,0.07,2.0,1093.79,1247.3,0,4,1
7.56,10.15,0.38,0.04,-0.04,0.7,887.82,1000.26,0,4,1
3.65,9.25,1.28,-0.09,-0.03,0.08,633.09,718.51,0,4,1
5.63,10.36,0.94,-0.21,-0.21,-0.48,854.15,1108.61,0,4,1
-5.54,5.91,3.26,-0.06,0.26,-0.68,1087.16,1379.17,0,4,1
2.04,9.05,1.77,0.36,0.27,1.59,1034.25,1214.26,0,4,1
4.85,8.15,0.81,0.05,0.1,-0.39,777.66,856.08,0,4,1
3.77,9.39,0.78,-0.15,0.04,0.02,515.56,590.13,0,4,1
5.71,10.9,0.61,-0.28,-0.2,-0.63,957.02,1184.39,0,4,1
-4.62,5.07,3.08,-0.3,-0.18,-1.31,1222.72,1466.2,0,4,1
0.07,7.53,1.68,0.46,0.09,2.14,847.39,991.8,0,4,1
4.18,9.8,0.28,-0.13,0.59,-0.26,747.81,844.55,0,4,1
2.85,9.09,1.12,-0.01,-0.02,0.09,510.03,585.43,0,4,1
5.8,10.46,-1.09,-0.35,-0.11,-0.61,888.76,1129.55,0,4,1
-4.98,6.8,2.64,-0.07,0.32,0.22,1206.82,1488.17,0,4,1
3.86,10.69,0.85,0.33,0.35,0.76,832.08,950.42,0,4,1
3.13,8.55,0.53,-0.28,0.0,-0.3,613.25,698.91,0,4,1
3.75,9.73,0.84,-0.14,-0.04,0.07,590.26,689.85,0,4,1
2.6,7.6,0.62,-0.66,-0.2,-1.87,934.35,1178.76,0,4,1
-4.5,6.78,3.04,0.16,0.08,1.81,951.13,1184.05,0,4,1
4.63,9.77,0.59,0.2,-0.44,0.72,722.98,820.94,0,4,1
3.43,8.72,-0.64,-0.3,-0.06,-0.19,638.62,711.58,0,4,1
4.16,9.33,0.5,-0.13,-0.14,0.03,507.66,582.74,0,4,1
2.46,7.7,1.14,-0.71,-0.39,-1.63,901.5,1178.79,0,4,1
-5.89,6.26,2.69,0.21,0.18,1.63,999.73,1222.2,0,4,1
3.7,11.11,-0.02,0.18,0.12,0.41,803.47,878.9,0,4,1
3.42,9.79,0.74,-0.14,-0.03,0.01,594.84,675.86,0,4,1
3.46,9.45,0.94,-0.12,-0.03,-0.08,407.31,475.65,0,4,1
2.69,11.13,0.06,-0.19,-0.19,-0.77,829.37,1039.37,0,4,1
-5.34,5.98,1.76,0.03,-0.18,1.61,989.01,1229.13,0,4,1
2.05,11.16,1.07,0.27,0.33,0.13,802.7,926.72,0,4,1
3.52,9.79,0.06,-0.0,0.23,0.02,558.25,645.12,0,4,1
3.46,9.44,0.48,-0.13,-0.01,0.19,463.66,532.57,0,4,1
1.74,7.98,-0.71,-0.65,-0.39,-1.89,976.76,1304.15,0,4,1
-4.43,7.62,2.5,0.27,0.27,2.62,767.23,989.05,0,4,1
6.88,10.24,0.75,0.42,0.22,0.32,726.01,837.49,0,4,1
3.49,9.66,0.96,-0.18,0.01,-0.01,647.25,711.11,0,4,1
3.01,9.44,0.95,-0.07,0.38,-0.15,458.84,526.43,0,4,1
6.35,11.3,1.38,-0.26,-0.83,-0.38,480.91,630.78,0,4,1
-5.88,4.36,1.9,-0.23,0.21,-1.52,1008.38,1258.43,0,4,1
2.52,9.1,0.32,0.32,0.1,0.81,883.71,1074.32,0,4,1
2.66,8.52,0.32,-0.09,0.09,-0.26,770.66,850.1,0,4,1
3.36,10.03,0.91,0.07,-0.04,0.3,704.52,872.04,0,4,1
2.4,7.38,0.7,-0.63,-0.25,-2.04,736.93,898.34,0,4,1
-5.88,6.06,2.35,-0.15,0.42,1.05,610.34,719.17,0,4,1
3.85,9.67,0.28,0.2,-0.09,0.38,755.07,923.63,0,4,1
3.45,9.47,0.72,-0.07,0.09,-0.05,599.89,682.79,0,4,1
4.07,9.4,0.67,-0.13,-0.03,0.1,648.3,724.51,0,4,1
4.13,9.52,-0.23,-0.61,-0.15,-1.38,776.84,997.84,0,4,1
-5.07,5.19,3.25,-0.31,-0.25,-0.9,656.69,831.46,0,4,1
2.44,9.16,1.33,0.3,0.33,1.6,645.73,788.22,0,4,1
2.13,8.36,0.26,-0.07,0.48,-0.28,827.89,1059.97,0,4,1
2.03,9.22,1.44,0.03,0.02,-0.03,876.17,962.25,0,4,1
-3.54,6.56,1.83,-0.63,0.31,-1.95,877.12,1035.41,0,4,1
-6.41,2.55,5.37,-2.27,-0.58,-1.17,1334.67,1649.51,1,4,1
-3.66,-3.35,5.97,0.07,0.56,-0.19,1064.74,1103.02,0,5,1
-5.22,-4.13,6.37,0.07,0.16,0.15,0.0,0.0,0,0,1
-6.51,-2.54,8.1,0.04,-0.3,0.55,379.32,472.18,0,0,1
0.9,3.83,1.33,1.89,0.12,2.04,585.4,770.96,0,0,1
3.22,9.96,1.68,0.08,-0.07,0.24,1737.85,2162.19,1,0,1
-1.13,7.09,2.83,0.01,-0.23,-0.32,939.11,1220.39,0,1,1
2.68,7.63,2.43,0.56,0.35,1.19,860.47,1082.53,0,1,1
1.23,9.99,0.62,-0.04,0.19,0.21,889.08,991.16,0,1,1
4.94,11.09,0.5,-0.27,-0.31,-0.23,555.44,621.45,0,1,1
-1.38,6.6,3.78,-0.18,0.04,-1.02,1157.74,1382.59,0,1,1
-0.63,7.01,2.6,-0.01,0.28,0.58,1041.22,1220.64,0,1,1
2.9,11.49,1.32,0.68,0.13,0.72,926.16,1105.94,0,1,1
1.21,9.0,1.86,-0.05,0.26,-0.01,1224.96,1445.75,0,1,1
1.44,10.16,2.41,-0.11,-0.02,0.14,1385.09,1631.96,1,1,1
-1.56,6.64,4.47,-0.43,-0.63,-1.13,1055.07,1239.35,0,2,1
-2.11,8.47,3.61,-0.05,0.1,0.02,1052.51,1213.18,0,2,1
-0.89,7.78,3.42,0.03,0.39,0.7,974.49,1077.33,0,2,1
2.11,12.61,1.75,0.42,-0.13,-0.35,904.78,1110.56,0,2,1
1.0,9.19,3.01,-0.11,0.04,-0.03,708.54,815.87,0,2,1
1.58,10.54,2.62,-0.01,0.0,0.25,1157.7,1347.33,0,2,1
-1.27,7.0,2.91,-0.14,-1.0,-0.93,1254.25,1438.1,0,2,1
-1.09,9.41,3.48,-0.25,-0.04,0.24,1273.22,1421.28,0,2,1
-0.91,8.65,4.25,-0.12,-0.0,0.04,1078.72,1166.79,0,2,1
3.36,11.35,0.48,0.95,1.45,0.27,966.93,1151.06,0,2,1
0.98,8.91,1.89,-0.13,0.15,-0.07,1562.37,1745.92,1,2,1
2.58,9.14,0.74,-0.69,0.01,-0.72,1180.92,1367.62,0,3,1
-0.51,8.55,4.22,-0.05,-0.15,-0.17,1198.9,1340.33,0,3,1
-1.3,8.36,3.63,-0.05,0.14,0.14,1185.17,1348.97,0,3,1
2.59,13.58,-1.57,0.64,0.3,-0.14,1044.07,1146.97,0,3,1
0.53,9.39,0.97,-0.16,0.19,-0.09,1201.78,1431.34,0,3,1
2.41,13.86,1.19,-0.05,-0.24,0.31,1273.41,1429.62,0,3,1
-1.03,7.21,3.42,0.04,0.38,-0.52,1223.7,1405.27,0,3,1
-2.14,8.36,3.02,-0.13,0.13,0.04,953.86,1109.9,0,3,1
-1.75,5.05,3.39,0.41,0.94,2.24,1374.23,1521.01,1,3,1
0.53,9.09,1.57,-0.18,0.42,0.04,1306.71,1510.54,1,3,1
1.87,10.41,1.63,-0.3,-0.06,0.04,1042.49,1301.91,0,4,1
1.14,4.69,2.1,-0.53,-0.26,-1.72,913.89,1044.13,0,4,1
-2.31,8.31,3.98,0.01,0.19,-0.06,969.56,1106.33,0,4,1
-1.22,2.97,3.54,0.15,-0.01,2.3,982.1,1181.32,0,4,1
2.99,11.57,2.19,-0.22,0.09,-0.65,1495.81,1617.65,1,4,1
0.44,9.22,2.32,-0.08,0.04,0.02,1560.87,1657.98,1,4,1
2.8,12.3,2.22,-0.27,-1.16,0.24,1132.2,1284.68,0,5,1
-2.3,7.0,5.22,-0.16,0.01,-0.09,1116.87,1283.75,0,5,1
-1.8,7.59,5.15,0.04,0.25,0.02,886.32,1012.19,0,5,1
-1.33,2.69,5.44,0.67,-0.33,2.11,1138.33,1317.43,0,5,1
1.47,13.46,3.58,-0.14,-0.62,0.39,1381.38,1586.84,1,5,1
0.88,10.1,2.11,-0.03,0.13,0.06,1188.03,1269.85,0,6,1
0.06,6.26,3.03,-0.76,-0.94,-1.77,1214.88,1351.34,0,6,1
-1.95,8.03,5.32,-0.08,0.03,0.24,979.52,1143.95,0,6,1
-2.36,7.36,4.69,-0.07,0.04,0.13,796.14,896.13,0,6,1
2.75,12.24,1.06,-0.0,0.67,0.15,607.28,729.91,0,6,1
0.1,8.32,3.82,-0.02,0.18,0.02,1486.86,1809.92,1,6,1
-0.73,11.87,3.97,-0.23,-0.33,0.05,1243.11,1465.56,0,7,1
-2.58,6.68,6.06,-0.14,-0.47,0.39,1412.63,1551.06,1,7,1
-2.64,7.16,5.42,-0.05,0.25,0.1,1167.13,1299.68,0,8,1
-1.49,5.2,4.6,0.17,0.5,1.06,863.81,976.44,0,8,1
1.49,13.09,2.97,0.4,-0.53,-0.49,604.61,756.88,0,8,1
-0.11,9.32,3.26,-0.1,-0.03,0.01,1568.58,1852.23,1,8,1
1.28,4.53,2.59,-0.98,-0.91,-1.79,1342.14,1497.2,0,9,1
-2.55,6.99,6.02,-0.08,0.09,-0.02,1188.43,1380.84,0,9,1
-2.64,7.06,5.45,-0.03,0.09,0.16,1094.76,1198.22,0,9,1
0.06,7.46,2.77,1.03,0.68,1.0,802.9,922.25,0,9,1
0.64,8.47,2.44,0.12,0.31,0.18,810.92,1050.84,0,9,1
0.15,9.85,3.38,-0.06,-0.08,0.22,1532.5,1772.8,1,9,1
-2.71,6.17,3.61,0.17,0.36,-0.71,1153.78,1350.23,0,10,1
-2.63,7.75,4.71,-0.07,0.08,-0.0,1102.49,1307.02,0,10,1
0.97,0.76,2.9,0.48,0.32,2.79,1126.36,1283.93,0,10,1
0.96,10.07,1.56,-0.21,-0.21,0.69,1044.06,1248.52,0,10,1
0.55,9.23,1.87,-0.15,-0.07,0.06,1158.13,1382.43,0,10,1
0.99,11.45,2.32,-0.52,0.24,-0.17,1350.56,1528.76,1,10,1
-3.18,7.13,5.4,-0.08,-0.07,0.13,1025.74,1228.55,0,11,1
-2.07,7.18,5.56,-0.03,0.05,0.2,1016.15,1153.61,0,11,1
0.7,12.36,2.2,0.4,0.2,-0.24,1069.02,1304.09,0,11,1
-0.52,9.01,3.22,-0.02,0.27,-0.09,972.94,1136.25,0,11,1
0.48,12.16,4.41,-0.19,-0.17,0.23,994.45,1217.66,0,11,1
-0.68,3.33,3.39,-0.71,-1.01,-2.0,1308.51,1552.23,1,11,1
-2.72,7.32,5.2,-0.03,0.22,0.03,954.4,1109.84,0,12,1
-2.04,6.55,5.27,-0.01,-0.02,0.28,963.36,1087.23,0,12,1
2.32,14.15,-0.53,0.51,0.73,-0.09,1350.5,1553.04,1,12,1
-1.07,9.48,1.88,-0.04,0.23,-0.06,1102.59,1240.04,0,13,1
2.42,13.14,2.4,-0.42,-1.3,0.17,894.06,1001.36,0,13,1
-2.26,7.8,3.9,-0.21,-0.31,0.27,969.19,1197.11,0,13,1
-2.48,8.2,4.12,-0.06,0.1,0.12,1100.52,1270.0,0,13,1
-1.27,3.41,2.92,0.12,1.33,2.02,1242.88,1446.6,0,13,1
-3.21,9.95,1.75,-0.13,0.01,0.25,1503.57,1615.55,1,13,1
-0.58,9.71,2.03,-0.16,0.07,0.11,1162.24,1347.11,0,14,1
-0.45,5.2,2.32,-0.5,-1.34,-1.64,1136.09,1280.35,0,14,1
-3.07,8.06,4.66,-0.18,0.1,0.08,1030.5,1170.52,0,14,1
-2.88,7.65,4.42,-0.09,0.05,-0.05,762.59,881.03,0,14,1
1.92,10.65,1.32,0.58,0.89,0.23,1249.61,1523.48,1,14,1
-2.48,9.2,2.35,-0.01,0.15,0.07,975.94,1089.62,0,15,1
-1.35,12.05,3.03,-0.25,-0.23,0.36,1347.21,1482.92,0,15,1
-2.81,7.18,3.27,-0.06,0.21,-0.01,1107.75,1327.86,0,15,1
-1.44,8.53,3.85,-0.03,0.17,0.26,870.43,1014.96,0,15,1
2.03,7.56,1.73,0.1,0.89,0.54,717.68,911.64,0,15,1
-0.6,8.15,2.13,-0.1,0.35,0.28,1397.45,1651.52,1,15,1
-0.22,11.85,2.32,-0.14,-0.61,-0.01,1281.62,1446.56,0,16,1
-2.91,7.17,3.9,-0.26,-0.52,-0.33,1462.33,1590.74,1,16,1
-2.6,7.92,3.92,-0.07,0.12,0.01,1122.76,1256.02,0,17,1
-0.8,3.11,3.29,0.13,0.39,2.01,980.05,1130.27,0,17,1
-4.97,11.64,3.3,0.16,-0.62,-0.18,916.11,1048.96,0,17,1
-2.97,8.4,3.03,-0.1,-0.03,0.2,802.55,905.17,0,17,1
-1.2,6.26,5.77,-0.47,-1.28,-1.32,1303.32,1515.28,1,17,1
-1.01,7.43,4.53,-0.0,0.13,0.06,1173.84,1327.43,0,18,1
1.02,7.58,2.59,0.68,0.54,1.51,1214.35,1420.82,0,18,1
-0.98,9.15,1.8,-0.25,-0.39,0.68,990.0,1142.79,0,18,1
-2.11,9.16,2.0,-0.07,0.05,0.14,723.62,854.19,0,18,1
0.28,12.18,3.01,-0.24,-0.11,0.45,1189.74,1386.72,0,18,1
40.0,6.92,3.82,-0.11,0.27,-0.44,1376.68,1602.35,1,18,1
-2.4,7.71,4.36,-0.07,0.17,0.26,1123.04,1262.35,0,19,1
2.15,9.09,3.28,0.57,-0.47,-0.43,1203.6,1398.97,0,19,1
-2.0,8.1,1.7,-0.16,0.32,0.02,1021.29,1163.56,0,19,1
-3.45,8.62,1.64,-0.1,0.14,0.04,667.66,763.95,0,19,1
-2.63,8.64,1.55,-0.2,0.04,0.41,995.54,1083.53,0,19,1
-1.45,3.17,3.53,-0.38,-0.4,-2.1,1400.87,1642.29,1,19,1
-1.43,7.3,4.74,-0.05,0.22,0.28,1039.02,1191.66,0,20,1
1.65,6.8,3.06,0.51,1.49,0.56,1076.29,1287.11,0,20,1
-4.02,9.22,0.59,-0.26,-0.05,0.49,1003.19,1125.25,0,20,1
-3.59,8.85,1.19,-0.02,-0.02,0.03,660.73,727.95,0,20,1
-2.52,10.59,3.77,-0.43,-1.0,0.22,1011.74,1289.82,0,20,1
-3.15,6.68,4.98,-0.17,0.16,0.34,1291.19,1576.43,1,20,1
-2.23,6.75,6.02,-0.07,0.18,0.17,989.83,1107.76,0,21,1
1.42,9.77,3.43,0.18,1.25,0.36,953.06,1180.95,0,21,1
-2.44,7.86,1.17,0.02,-0.04,0.31,880.44,999.04,0,21,1
-4.59,8.89,1.85,-0.23,0.26,0.17,606.98,681.9,0,21,1
-0.39,12.5,3.79,-1.06,-1.09,0.85,806.62,923.14,0,21,1
-3.9,4.66,3.77,0.25,1.21,-0.86,1554.79,1877.41,1,21,1
-2.45,6.45,5.49,0.07,0.29,0.34,927.38,1037.64,0,22,1
0.95,8.77,3.16,0.25,1.9,-0.02,1126.84,1368.8,0,22,1
-2.41,7.24,1.14,-0.01,0.13,0.1,884.9,990.97,0,22,1
-3.94,8.75,1.33,-0.08,-0.01,0.01,588.28,683.4,0,22,1
-1.01,9.06,2.85,-0.55,-1.95,-1.09,942.94,1219.14,0,22,1
-4.46,6.99,6.34,-0.15,0.04,0.37,945.37,1162.83,0,22,1
-3.46,6.66,5.72,-0.1,-0.06,0.15,888.28,960.01,0,22,1
-1.2,5.56,3.59,0.52,1.37,1.81,1028.47,1199.03,0,22,1
-3.36,8.11,1.29,-0.25,0.05,0.28,933.39,1164.22,0,22,1
-2.18,9.12,2.19,-0.16,-0.06,0.05,685.4,772.85,0,22,1
3.0,7.06,0.18,-0.14,-0.87,-1.28,738.72,951.2,0,22,1
-2.01,9.41,1.51,-0.12,0.14,0.06,1408.61,1701.6,1,22,1
-1.66,4.99,1.05,-0.27,1.18,1.1,1136.29,1295.06,0,23,1
-6.94,14.91,2.24,0.98,1.75,-0.45,1175.31,1329.7,0,23,1
-3.76,9.73,-0.7,-0.02,-0.13,0.05,990.05,1116.56,0,23,1
4.6,12.73,1.29,-0.49,-4.87,1.38,991.3,1077.32,0,23,1
-0.35,6.77,2.55,-0.15,0.32,-0.34,886.1,1083.17,0,23,1
1.44,8.31,4.24,-0.02,0.18,-0.02,975.79,1226.31,0,23,1
2.04,5.93,3.01,0.91,1.91,1.03,1303.93,1506.86,1,23,1
-0.19,9.22,-0.2,-0.23,-0.3,0.07,1279.78,1506.69,1,23,1
1.96,13.49,3.06,-0.71,-2.47,0.88,1581.51,1672.57,1,23,1
-1.8,8.05,3.15,-0.07,-0.4,0.2,1226.22,1371.24,0,24,1
-0.81,8.76,3.37,-0.07,0.05,0.03,1040.32,1182.01,0,24,1
-0.08,6.2,2.01,0.42,1.01,1.59,571.27,663.11,0,24,1
-2.62,12.07,3.64,0.26,0.24,-1.2,1318.39,1516.89,1,24,1
-1.16,9.73,1.52,-0.12,0.0,0.04,1652.34,1810.25,1,24,1
-2.09,2.98,2.35,-0.25,-0.74,-2.15,1391.57,1536.32,1,24,1
-1.88,8.37,4.53,-0.04,-0.01,0.28,1083.52,1236.59,0,25,1
-0.13,8.58,3.59,-0.07,-0.22,0.32,886.16,992.06,0,25,1
0.65,7.17,3.53,0.68,0.66,0.54,680.81,880.2,0,25,1
-0.62,8.57,1.61,0.01,0.04,0.05,1324.97,1587.65,1,25,1
-11.99,-0.2,6.49,-2.38,-0.92,-1.9,1370.74,1535.03,1,25,1
-6.12,-1.48,6.84,-0.15,0.36,-0.14,1098.2,1228.22,0,26,1
-6.49,-2.55,6.45,-0.05,0.14,-0.04,753.69,846.77,0,26,1
0.86,-2.7,7.88,-0.06,0.05,0.02,989.02,1359.59,0,0,1
-3.81,-2.82,7.91,-0.07,0.09,0.02,434.65,594.43,0,0,1
-10.97,-2.84,8.49,0.31,-2.83,4.13,589.36,851.8,0,0,1
7.19,-3.78,4.8,0.37,0.24,2.73,882.86,1103.62,0,0,1
14.09,-1.5,6.74,-0.42,-2.44,-2.19,750.38,832.61,0,0,1
-3.42,7.36,2.92,-0.41,0.32,-1.47,1012.55,1342.82,0,0,1
3.12,4.58,0.5,0.12,-0.03,3.72,869.6,1158.26,0,0,1
9.38,-3.25,6.05,0.67,0.42,0.34,1299.76,1551.17,1,0,1
9.06,-3.32,6.48,-0.33,-0.7,-0.54,824.02,933.82,0,1,1
4.19,4.24,0.53,-0.4,0.91,-3.65,844.51,1116.35,0,1,1
0.83,9.27,2.97,-0.06,-0.05,0.08,685.96,869.29,0,1,1
-0.04,6.17,1.75,0.05,-0.02,2.58,1129.64,1341.71,0,1,1
9.97,-1.65,6.44,0.5,1.79,1.88,1571.17,1773.2,1,1,1
7.22,-1.85,6.24,-0.11,0.07,-0.02,1115.18,1186.51,0,2,1
7.6,-2.07,6.34,-0.25,-0.1,-0.1,688.55,757.57,0,2,1
6.95,2.59,2.63,-0.08,0.18,-3.39,809.38,1125.07,0,2,1
-2.28,9.2,2.51,-0.07,0.02,-0.42,1065.35,1330.71,0,2,1
-0.52,9.19,2.5,-0.09,0.04,0.07,722.07,829.59,0,2,1
-2.09,8.82,3.23,0.11,0.29,0.55,535.98,628.73,0,2,1
10.63,0.22,3.8,0.21,1.61,2.39,1380.54,1708.46,1,2,1
7.83,-1.32,5.92,-0.09,-0.1,-0.04,906.9,994.24,0,3,1
7.73,-1.23,5.68,-0.09,0.07,0.03,643.65,699.43,0,3,1
12.76,-1.56,5.91,-0.45,-1.3,-1.31,420.54,461.13,0,3,1
1.21,7.19,2.3,-0.19,-0.21,-2.46,770.78,1051.74,0,3,1
-0.71,9.27,2.16,-0.01,-0.03,0.1,701.8,885.8,0,3,1
-1.03,9.27,2.13,-0.05,0.07,0.16,756.98,912.34,0,3,1
6.63,3.64,-0.18,-0.29,0.28,3.98,733.92,960.62,0,3,1
10.3,-3.45,5.44,0.25,0.71,0.72,818.29,1076.52,0,3,1
7.97,-2.6,5.23,-0.07,0.02,0.04,509.8,577.38,0,3,1
7.96,-2.59,5.03,-0.05,0.09,0.03,404.52,452.89,0,3,1
9.09,1.3,2.77,-0.26,-0.44,-3.48,428.79,596.67,0,3,1
-0.71,8.92,2.37,-0.24,-0.06,-0.79,910.18,1229.39,0,3,1
-0.42,9.28,2.23,-0.04,-0.01,0.18,774.6,926.84,0,3,1
-1.06,8.63,1.67,0.2,-0.11,1.36,1054.11,1205.43,0,3,1
11.42,0.0,4.39,0.21,1.35,2.5,1057.28,1341.74,0,3,1
8.06,-1.4,5.89,-0.04,0.03,-0.03,832.61,889.98,0,3,1
7.79,-1.47,5.46,-0.08,0.03,-0.02,452.45,523.99,0,3,1
9.02,-1.43,5.03,-0.21,-0.26,-0.1,400.08,477.74,0,3,1
5.26,4.3,1.79,-0.06,0.58,-3.19,704.36,1022.77,0,3,1
-2.43,9.14,2.3,-0.12,-0.21,0.02,664.64,810.26,0,3,1
-0.92,9.04,3.22,-0.06,-0.07,0.18,677.67,828.76,0,3,1
7.21,4.82,0.98,0.06,-0.06,3.54,1327.96,1651.37,1,3,1
6.99,-1.59,6.32,-0.24,-0.11,-0.14,792.18,901.64,0,4,1
7.48,-1.43,5.82,-0.05,0.05,-0.02,622.71,698.2,0,4,1
8.62,-1.64,5.53,-0.21,-0.3,-0.17,397.89,447.49,0,4,1
4.27,4.43,3.08,0.14,0.65,-3.12,507.02,701.15,0,4,1
-2.51,8.75,3.61,-0.1,0.07,-0.09,802.68,1044.83,0,4,1
-0.74,8.37,4.15,-0.13,-0.01,0.07,641.69,707.55,0,4,1
-1.98,8.0,4.5,0.09,0.23,0.61,409.62,496.01,0,4,1
8.95,-0.68,6.26,-0.15,0.54,2.86,1167.92,1537.85,1,4,1
7.29,-1.18,6.05,-0.04,0.03,-0.07,587.13,678.5,0,5,1
7.5,-1.05,5.94,-0.03,0.04,-0.0,519.31,575.7,0,5,1
10.72,0.68,4.56,-0.49,-0.89,-2.96,393.75,454.6,0,5,1
-1.33,7.47,3.86,-0.36,0.21,-1.5,1141.23,1551.53,1,5,1
-1.38,8.19,4.08,-0.11,0.07,0.06,814.99,924.47,0,6,1
-1.71,8.09,4.49,0.07,0.18,0.22,692.92,812.13,0,6,1
10.28,2.24,0.73,-0.41,0.03,3.25,761.35,1043.17,0,6,1
7.61,-1.89,5.25,-0.19,0.03,-0.02,550.41,644.08,0,6,1
8.27,-1.79,5.05,-0.07,0.04,0.03,471.65,532.83,0,6,1
14.26,-1.77,4.3,-0.34,-1.34,-1.56,418.83,475.43,0,6,1
-2.53,6.73,2.91,-0.12,0.66,-2.83,628.76,901.63,0,6,1
-1.14,8.97,3.44,-0.12,0.16,-0.0,707.13,896.8,0,6,1
-0.15,9.03,3.28,-0.12,-0.16,0.22,804.4,976.89,0,6,1
9.27,-1.36,3.06,0.16,0.43,3.92,1071.11,1400.87,0,6,1
5.97,-2.85,6.23,-0.22,-0.08,-0.4,864.11,898.96,0,6,1
6.99,-3.2,5.89,-0.1,-0.03,0.19,478.24,541.33,0,6,1
11.72,-3.66,5.53,-0.23,-1.0,-1.05,350.14,400.67,0,6,1
4.77,5.57,3.2,-0.59,0.65,-2.12,631.42,908.19,0,6,1
2.13,8.2,4.21,-0.04,0.17,0.11,523.32,646.17,0,6,1
0.51,8.43,4.58,-0.01,0.05,0.1,701.59,887.93,0,6,1
8.77,0.8,3.32,-0.05,0.27,3.07,1301.79,1636.4,1,6,1
8.35,-2.37,4.66,-0.03,0.05,0.03,808.75,877.93,0,7,1
8.21,-2.6,4.92,-0.03,0.02,0.11,600.65,635.2,0,7,1
9.34,-1.05,3.41,-0.62,-0.28,-3.42,479.8,658.48,0,7,1
-3.2,8.67,4.22,-0.07,0.19,-0.58,937.59,1213.41,0,7,1
0.22,8.59,3.88,-0.27,-0.26,0.13,744.6,906.22,0,7,1
3.47,4.43,2.27,0.58,0.21,3.4,685.23,860.93,0,7,1
8.48,-0.92,6.38,0.29,0.95,0.41,624.65,700.36,0,7,1
6.82,-0.88,6.33,-0.14,-0.09,-0.01,392.55,470.78,0,7,1
7.15,-0.96,6.55,-0.11,0.01,0.1,417.74,481.18,0,7,1
10.87,-0.32,5.37,-0.62,-1.5,-2.63,434.03,509.97,0,7,1
-1.6,7.85,2.36,-0.26,0.05,-1.51,739.6,1005.7,0,7,1
-0.37,8.42,4.04,-0.08,0.44,0.06,538.21,708.63,0,7,1
-1.89,7.5,3.52,0.15,-0.05,1.87,841.44,1048.8,0,7,1
11.19,-2.76,6.06,0.37,0.84,2.49,905.77,1105.23,0,7,1
6.94,-1.59,6.32,0.04,-0.0,-0.07,593.34,652.41,0,7,1
7.41,-1.5,5.92,-0.04,0.12,0.07,431.19,473.54,0,7,1
10.6,0.35,3.28,-0.24,-0.46,-3.47,420.28,535.56,0,7,1
-3.68,7.59,4.3,-0.05,0.32,-0.99,773.89,975.01,0,7,1
-1.06,8.0,4.8,-0.14,0.01,0.23,600.92,745.1,0,7,1
5.97,2.56,2.53,0.15,-0.48,3.84,671.94,863.86,0,7,1
6.52,-1.78,6.54,-0.25,-0.09,-0.21,529.38,575.1,0,7,1
7.03,-1.91,6.29,-0.09,0.08,0.04,332.71,388.34,0,7,1
8.28,-1.7,5.6,-0.19,-0.35,-0.39,0.0,332.26,0,7,1
2.5,4.91,3.78,0.2,0.99,-3.06,788.8,1124.8,0,7,1
-2.77,8.29,3.85,-0.1,0.02,0.04,705.94,893.27,0,7,1
-3.51,6.84,4.39,0.17,-0.26,2.12,553.96,672.48,0,7,1
12.26,-3.03,4.44,-0.5,1.42,3.05,851.27,1191.29,0,7,1
7.33,-2.34,5.64,0.04,-0.05,-0.13,494.71,559.68,0,7,1
8.06,-2.01,5.89,0.0,-0.16,-0.06,391.62,443.09,0,7,1
5.67,4.64,2.31,-0.21,0.31,-3.16,548.07,767.59,0,7,1
-2.94,8.22,3.71,-0.09,-0.0,0.04,776.73,1084.42,0,7,1
-1.77,8.19,4.46,-0.09,-0.19,0.02,506.54,638.28,0,7,1
7.45,4.55,1.71,0.42,-0.67,3.7,1215.88,1623.27,1,7,1
7.91,-1.49,5.05,-0.18,-0.03,-0.12,607.24,703.68,0,8,1
8.08,-1.6,5.34,-0.02,0.15,0.06,517.92,588.93,0,8,1
12.84,-1.58,4.51,-0.24,-1.24,-2.12,449.24,515.09,0,8,1
-2.27,6.67,3.43,-0.45,0.6,-2.18,692.82,948.43,0,8,1
-3.13,8.18,4.22,-0.08,0.08,0.06,589.42,778.53,0,8,1
3.11,4.06,2.22,0.4,-1.25,4.02,1026.61,1332.2,0,8,1
10.26,-4.36,6.27,0.03,0.54,0.48,818.57,1023.59,0,8,1
7.72,-2.89,4.94,-0.04,0.1,-0.04,567.82,622.67,0,8,1
10.22,-3.36,5.57,-0.03,-1.08,-0.4,418.51,447.85,0,8,1
1.41,4.22,3.49,-0.02,1.87,-3.36,408.66,583.54,0,8,1
-3.01,7.7,4.1,-0.0,0.49,-0.21,780.6,1146.99,0,8,1
-4.56,7.72,4.51,0.09,0.57,0.89,570.75,676.49,0,8,1
6.29,1.1,1.92,-0.72,1.05,3.26,1296.15,1679.58,1,8,1
7.13,-1.32,5.87,0.01,-0.01,-0.07,759.45,827.54,0,9,1
8.03,-1.36,6.01,0.05,0.1,-0.06,527.19,578.4,0,9,1
5.75,2.55,3.38,-0.09,0.43,-3.33,402.51,470.83,0,9,1
-3.07,8.35,3.61,-0.27,-0.3,0.02,763.56,1092.3,0,9,1
-6.92,7.46,3.97,0.19,0.08,2.04,708.41,909.35,0,9,1
14.23,-1.77,4.25,-0.24,1.77,1.01,780.07,963.68,0,9,1
7.62,-0.95,6.04,0.15,0.0,0.09,565.61,610.7,0,9,1
7.78,-0.17,5.76,-0.05,-0.09,0.17,418.04,463.14,0,9,1
10.47,0.19,4.05,-0.65,-0.74,-2.77,390.81,505.66,0,9,1
-3.43,7.76,4.72,-0.29,0.38,-0.14,881.08,1153.58,0,9,1
-1.77,7.35,5.66,0.0,0.02,0.26,653.19,854.15,0,9,1
9.55,0.4,2.75,0.07,0.75,3.16,696.7,786.5,0,9,1
6.73,-1.86,6.79,-0.22,0.09,-0.17,534.07,586.77,0,9,1
7.82,-1.48,5.83,-0.04,-0.05,0.08,383.21,431.49,0,9,1
13.59,-2.12,5.96,-0.44,-1.93,-2.0,323.25,390.16,0,9,1
-1.15,6.97,3.52,-0.5,-0.67,-1.86,716.18,1047.46,0,9,1
-2.26,7.69,4.84,-0.11,0.02,0.13,672.3,925.26,0,9,1
7.22,3.32,2.14,-0.13,-0.48,3.69,794.67,938.19,0,9,1
7.87,-1.51,6.18,0.06,0.25,0.07,575.12,658.77,0,9,1
6.93,-1.21,6.33,-0.05,0.07,0.04,480.04,529.4,0,9,1
7.69,-1.67,6.03,-0.19,-0.02,-0.09,336.01,372.21,0,9,1
7.13,1.15,4.62,0.2,0.5,-3.7,392.27,551.23,0,9,1
-3.36,7.75,5.52,-0.22,-0.05,-0.07,713.92,923.43,0,9,1
-1.45,5.86,4.8,-0.01,-0.75,2.48,504.58,608.54,0,9,1
12.49,-2.45,6.42,0.11,0.89,2.15,583.72,684.83,0,9,1
6.53,-1.48,6.81,-0.15,-0.15,-0.15,445.01,496.54,0,9,1
7.08,-1.35,6.23,-0.08,0.03,0.11,347.13,378.88,0,9,1
10.06,0.14,3.91,-0.19,-0.43,-3.76,313.77,396.96,0,9,1
-4.3,8.2,4.52,-0.12,-0.12,-0.27,575.68,724.87,0,9,1
-1.62,7.81,4.72,-0.05,0.18,0.25,586.26,726.21,0,9,1
6.84,2.81,2.84,0.21,0.11,3.6,653.75,796.86,0,9,1
7.51,-0.23,6.57,-0.16,0.06,0.24,425.0,502.38,0,9,1
6.99,-0.45,6.6,-0.04,0.11,0.02,436.69,484.4,0,9,1
17.07,-0.38,5.49,0.34,-1.85,-2.3,381.43,420.45,0,9,1
-3.71,5.71,2.75,-0.01,0.09,-2.21,724.08,1051.91,0,9,1
-5.77,7.45,4.25,-0.23,-0.18,0.96,455.32,582.03,0,9,1
9.59,-1.11,6.42,-0.0,1.91,3.2,653.75,823.77,0,9,1
7.26,-1.33,6.63,0.16,0.3,-0.04,437.31,507.8,0,9,1
7.61,-1.02,6.06,-0.05,-0.15,-0.02,326.73,393.88,0,9,1
8.96,1.58,3.03,-0.66,-0.53,-3.72,412.66,495.0,0,9,1
-2.4,7.93,3.67,-0.21,-0.12,0.01,839.17,1133.52,0,9,1
0.92,4.97,4.18,0.3,-0.63,4.08,487.3,559.92,0,9,1
11.89,-3.16,7.36,-0.45,1.23,1.5,433.07,501.33,0,9,1
7.7,-1.12,5.99,-0.01,0.03,-0.04,342.0,390.34,0,9,1
8.93,-1.21,5.67,-0.18,-0.46,-0.2,304.54,391.67,0,9,1
-1.42,4.31,2.19,-0.11,1.34,-3.56,742.41,1011.81,0,9,1
-3.24,7.52,4.67,-0.2,-0.37,0.37,654.49,830.85,0,9,1
9.1,2.25,1.97,-0.03,0.17,3.48,613.71,732.68,0,9,1
6.72,-1.29,6.73,0.13,-0.03,-0.01,456.39,502.25,0,9,1
7.06,-0.75,6.73,0.02,0.07,-0.08,0.0,341.83,0,9,1
10.23,2.43,3.82,-0.04,-0.84,-3.02,456.35,582.29,0,9,1
-4.87,7.65,3.38,0.01,-0.08,-1.16,660.46,877.35,0,9,1
-3.5,7.49,4.53,-0.07,-0.16,0.63,492.34,602.69,0,9,1
8.66,3.4,1.51,-0.16,-0.73,4.3,721.83,982.95,0,9,1
7.45,-1.02,6.26,-0.04,-0.07,-0.2,480.45,530.53,0,9,1
7.18,-0.71,6.55,-0.06,-0.04,-0.07,367.26,402.91,0,9,1
10.99,-0.83,7.03,-0.52,-0.92,-0.17,328.13,423.55,0,9,1
-0.85,3.17,4.99,-0.55,0.49,-3.54,867.04,1187.17,0,9,1
-3.59,7.21,5.12,-0.09,0.06,0.97,661.66,830.13,0,9,1
9.96,0.58,3.61,0.6,0.93,2.35,654.61,749.39,0,9,1
7.54,1.22,5.56,0.05,0.19,-0.3,487.29,547.98,0,9,1
9.67,0.77,0.88,-1.22,0.9,-1.95,383.35,423.95,0,9,1
-7.55,-5.96,7.01,-0.49,2.72,-2.46,0.0,0.0,0,9,1
-6.18,-5.2,8.33,1.3,0.55,1.67,367.6,432.14,0,9,1
0.08,-5.03,13.4,-0.33,-2.6,-0.04,0.0,306.92,0,9,1
