ax,ay,az,gx,gy,gz,mav,rms
0.7,-0.85,9.45,0.23,0.33,-0.07,1316.25,1679.39
1.31,-0.1,8.9,0.31,0.46,0.07,1040.34,1309.09
0.6,0.85,8.75,0.43,0.5,0.23,1065.92,1321.14
-1.02,1.22,8.71,0.36,0.82,0.6,1069.11,1241.62
-1.32,1.68,8.66,0.06,0.99,0.92,1387.5,1606.32
-1.47,1.28,9.45,0.13,0.94,0.99,1504.79,1671.59
-1.93,1.41,9.38,0.4,1.05,0.67,1499.52,1641.69
-2.02,1.07,9.66,0.03,0.72,0.52,1321.72,1419.53
-0.53,1.18,8.56,-0.24,0.16,0.43,1021.13,1138.72
0.33,1.36,8.0,-0.42,-0.05,-0.09,802.7,868.04
-1.36,-0.82,9.29,-0.28,-0.03,-0.47,812.48,901.34
-2.96,1.02,7.57,-0.17,0.67,-0.53,790.41,866.06
-3.66,2.21,8.79,-0.55,-0.31,0.05,704.43,772.5
-3.0,-1.78,9.97,-0.13,0.13,0.2,767.99,861.2
-3.97,0.62,6.68,-0.17,0.35,0.27,1524.57,1817.38
-4.36,0.43,8.78,-0.68,-0.13,0.94,1598.49,1788.27
-2.36,0.52,11.97,0.2,-0.17,0.94,1023.31,1127.81
-2.33,1.21,11.86,1.55,0.09,0.32,823.42,914.36
-3.61,1.96,9.31,1.84,-1.13,1.04,686.24,757.51
-1.3,4.2,7.44,2.0,-0.82,0.78,577.05,649.43
0.69,5.76,5.97,2.09,-0.44,0.62,505.67,599.19
0.43,8.43,3.54,2.03,0.34,0.56,530.13,639.11
1.44,8.38,1.83,1.4,-0.15,0.27,524.35,613.73
1.83,8.69,1.76,1.68,0.29,0.27,491.26,568.62
3.07,8.88,1.14,2.0,0.16,-0.1,537.14,624.94
-0.49,8.77,-2.19,2.22,0.2,0.33,495.22,558.75
0.84,8.54,-4.65,1.17,0.4,1.3,390.39,448.39
2.49,7.61,-4.34,0.3,0.36,1.94,351.06,389.32
4.33,6.69,-4.64,0.05,0.8,2.45,295.64,332.44
6.74,3.67,-4.96,-0.1,0.98,2.6,1374.49,1903.3
8.09,1.71,-3.24,-0.1,1.08,2.36,1369.2,1710.4
11.82,0.05,-2.23,-0.37,0.9,1.49,1400.77,1625.05
11.24,-0.38,-1.04,-0.7,0.41,0.29,1063.94,1242.13
9.61,0.05,-1.15,-0.49,-0.02,-0.08,1064.8,1127.66
9.55,0.73,-0.91,-0.25,-0.03,0.14,754.04,814.78
10.37,0.39,-1.04,-0.14,0.04,0.14,1125.32,1456.36
10.52,0.41,-1.47,-0.1,-0.0,0.03,720.03,858.43
10.62,0.55,-1.28,-0.17,0.0,-0.11,692.76,751.88
12.39,0.92,-1.77,-0.28,-0.09,-0.5,715.88,955.7
12.11,1.25,-1.76,-0.54,-0.17,-1.34,968.71,1312.36
11.89,2.77,-3.16,-0.93,-0.25,-2.13,1207.37,1529.08
8.69,3.96,-2.4,-1.31,-0.33,-2.71,1056.06,1325.86
5.38,6.0,-0.48,-1.38,-0.94,-2.75,1092.38,1313.72
2.96,7.0,1.14,-1.34,-1.15,-2.58,1053.63,1262.78
1.78,9.02,0.87,-1.37,-0.61,-2.2,1191.6,1387.97
-1.87,7.2,3.97,-0.88,0.23,-1.89,1349.92,1556.12
-3.68,8.6,3.8,-0.29,-0.23,-0.6,1512.46,1654.36
-3.67,9.01,3.17,-0.07,-0.02,-0.02,1210.81,1377.08
-2.93,9.1,2.84,-0.06,-0.06,0.2,1017.18,1168.46
-2.71,9.26,2.83,0.09,-0.21,0.67,876.17,989.04
-3.03,8.41,3.68,0.56,-0.04,1.65,906.06,1100.68
-0.02,7.7,2.55,0.99,0.39,2.63,859.62,965.64
3.69,7.37,0.75,1.2,0.68,3.1,886.41,1093.87
7.79,5.37,-0.77,0.94,0.68,2.88,798.31,946.41
10.76,3.48,-1.13,0.84,0.11,2.3,637.87,738.84
10.35,1.78,-1.07,0.71,0.01,1.82,713.21,975.22
10.93,0.73,-2.04,0.59,0.2,1.36,596.4,668.82
11.56,0.54,-2.42,0.22,0.11,0.84,555.48,611.59
11.9,0.18,-1.59,-0.08,0.06,0.11,342.4,395.16
10.3,0.69,-1.12,-0.12,0.04,-0.31,288.83,336.55
9.48,0.88,-1.26,-0.06,-0.07,-0.03,348.63,460.31
10.05,0.79,-1.31,-0.08,0.08,0.12,319.99,417.0
10.33,0.54,-1.31,-0.1,0.15,-0.01,312.46,351.09
10.05,0.94,-1.48,-0.08,-0.02,-0.06,462.38,680.35
12.19,1.03,-2.18,-0.15,-0.05,-0.27,558.73,827.29
13.49,0.92,-2.49,-0.64,0.17,-1.53,661.27,1043.08
11.18,2.32,-1.37,-0.95,-0.66,-2.44,852.36,1164.34
9.25,3.9,-1.76,-1.07,-0.01,-3.09,1537.07,1863.08
4.36,5.42,-0.4,-1.0,-0.5,-3.06,969.09,1243.27
2.34,7.94,1.03,-0.91,-0.76,-2.5,904.11,1117.55
0.2,7.25,2.35,-1.08,0.02,-2.88,1300.86,1523.4
-4.04,8.03,2.51,-0.54,-0.21,-1.53,1210.12,1391.33
-4.58,9.1,2.6,-0.19,0.1,-0.38,1228.5,1397.84
-3.51,8.81,3.01,-0.1,-0.08,0.05,1016.7,1189.75
-2.26,8.99,2.52,-0.12,-0.16,0.1,943.1,1101.97
-2.28,8.73,2.67,-0.04,-0.07,0.15,979.4,1199.37
-3.62,8.89,2.86,0.44,0.46,0.79,1048.34,1318.14
-3.6,8.31,2.26,0.73,0.58,1.66,1052.1,1352.25
-1.82,8.33,0.99,1.02,0.4,2.61,1110.36,1382.87
2.71,7.74,-0.45,1.0,0.81,2.99,1191.37,1366.66
5.78,5.28,-1.16,0.64,0.09,3.32,1205.49,1375.4
9.22,3.24,-1.13,0.65,0.51,3.2,1194.54,1370.49
11.32,0.13,-1.4,0.72,0.35,2.65,856.13,995.98
12.02,-1.18,-1.79,0.58,0.1,1.88,869.22,973.43
13.06,-1.41,-2.21,0.14,0.03,0.61,608.4,691.02
10.94,-1.26,-1.25,-0.1,0.01,-0.14,548.16,693.57
9.31,-0.97,-0.76,-0.12,0.12,-0.06,481.94,551.6
10.02,-1.17,-0.98,-0.08,0.15,0.08,539.21,679.51
10.38,-1.26,-1.2,-0.1,0.07,-0.07,872.73,1184.18
10.18,-0.8,-1.34,-0.13,0.12,-0.06,909.77,1168.99
10.77,-0.99,-0.87,-0.07,-0.09,-0.03,734.19,899.52
13.58,-1.03,-1.96,-0.16,0.31,-0.73,1053.78,1327.56
13.03,-0.07,-1.97,-0.37,0.16,-2.06,1040.44,1306.58
10.35,1.63,-1.28,-0.91,-0.51,-2.82,1108.0,1334.46
7.21,3.17,-1.28,-1.24,-0.43,-3.07,1323.13,1568.1
5.4,6.04,-0.34,-1.04,-0.4,-2.87,1236.99,1430.65
1.5,7.59,0.92,-1.01,-0.71,-2.47,1398.76,1569.43
1.5,7.59,0.92,-1.01,-0.71,-2.47,1283.25,1435.48
-0.38,8.17,1.64,-1.0,-0.29,-2.1,1389.27,1532.11
-1.92,8.5,2.87,-0.5,-0.09,-1.19,1397.83,1558.39
-2.42,9.13,2.89,-0.14,-0.01,-0.27,1300.28,1452.82
-1.43,9.38,2.37,-0.09,-0.09,0.06,1244.19,1394.28
-1.86,9.17,2.45,0.03,-0.02,0.27,1211.35,1378.62
-3.31,8.41,2.92,0.45,0.65,0.86,1116.97,1326.29
-1.39,8.72,1.06,0.73,0.33,2.09,1270.89,1417.89
2.41,7.99,0.9,0.84,0.48,2.59,1375.54,1494.62
5.67,6.55,-1.02,1.19,0.3,2.8,1357.5,1500.26
8.19,5.15,-2.22,0.84,0.15,2.92,1276.42,1433.2
10.26,2.11,-1.58,0.7,0.32,2.3,964.8,1137.63
10.61,0.26,-1.88,0.6,0.41,1.93,989.58,1143.56
12.23,-0.86,-2.89,0.39,-0.12,1.48,969.32,1085.76
13.91,-1.1,-2.13,-0.05,0.04,0.33,598.99,655.41
9.92,-0.43,-0.89,-0.02,-0.08,-0.39,448.44,513.94
9.44,-0.35,-1.66,0.0,-0.01,0.04,342.52,418.84
10.37,-0.62,-1.49,-0.13,0.08,0.07,344.25,401.1
10.24,-0.55,-1.21,-0.14,0.04,-0.09,426.58,620.52
10.22,-0.1,-1.75,-0.06,0.12,0.04,418.25,551.4
11.28,-0.57,-1.82,-0.08,-0.07,-0.04,772.0,1092.79
12.8,-0.35,-2.26,-0.34,0.11,-0.9,665.09,850.88
10.83,0.82,-0.76,-0.44,-0.12,-1.77,581.49,742.59
11.23,2.72,-2.58,-0.8,-0.11,-2.3,1502.51,1878.66
8.89,4.19,-1.75,-1.24,-0.19,-2.54,1311.46,1580.74
4.72,4.99,-0.08,-1.15,-0.19,-2.52,1052.12,1207.02
5.41,8.41,-0.95,-0.95,0.06,-2.3,1020.84,1199.5
1.23,6.69,1.78,-0.94,-0.1,-2.11,1273.13,1560.71
-0.88,9.01,2.38,-0.72,-0.38,-1.36,1346.83,1544.15
-1.22,8.57,2.89,-0.61,-0.28,-1.17,1132.07,1346.67
-1.7,9.17,2.9,-0.18,-0.1,-0.17,1396.87,1548.1
-2.06,9.18,2.6,-0.05,0.1,0.16,1369.18,1531.98
-1.14,9.17,2.56,-0.0,-0.01,0.22,1257.29,1454.41
-0.49,9.14,2.27,0.14,0.03,0.47,1244.47,1407.25
-2.68,7.61,2.93,0.75,0.43,1.72,1159.65,1307.26
0.18,7.57,0.94,1.02,0.68,3.0,1045.94,1168.63
4.41,7.66,-0.06,1.11,0.71,3.4,879.93,990.25
8.99,4.91,-1.11,0.83,0.37,3.06,881.35,1038.67
11.22,2.93,-1.28,0.68,0.71,2.1,590.71,684.23
10.15,1.6,-1.33,0.39,0.13,1.66,606.42,685.1
12.72,0.8,-2.35,0.05,0.19,1.03,453.77,511.38
12.04,0.73,-1.09,-0.16,0.08,-0.08,416.88,498.27
9.62,1.07,-0.75,-0.08,-0.14,-0.13,281.42,313.22
9.95,0.87,-1.34,-0.05,-0.01,0.03,295.43,367.73
10.23,0.76,-1.03,-0.11,-0.02,0.03,200.98,238.36
10.33,0.91,-1.06,-0.13,0.02,-0.02,319.44,452.4
10.89,1.03,-0.99,-0.1,-0.1,-0.09,473.34,741.87
11.52,1.28,-1.5,-0.15,0.2,-0.42,539.36,696.03
12.88,1.74,-2.38,-0.44,-0.07,-1.12,532.46,685.76
11.5,3.1,-1.87,-0.61,0.35,-1.96,859.69,1223.9
9.91,4.43,-1.04,-0.79,0.02,-2.55,1125.78,1466.72
6.63,5.77,-1.17,-1.0,-0.2,-2.9,1192.0,1497.41
1.94,6.25,1.12,-0.86,-0.21,-2.84,992.57,1155.81
-0.83,7.43,1.61,-0.75,-0.33,-2.05,957.92,1112.66
-0.88,8.46,1.99,-0.64,-0.16,-1.28,1404.95,1639.49
-0.75,9.23,2.25,-0.45,0.15,-0.75,1287.82,1469.24
-2.28,8.96,2.53,-0.22,0.09,-0.22,1115.68,1314.53
-2.0,9.31,2.25,-0.11,-0.01,0.11,1073.32,1225.42
-1.47,9.23,2.34,0.14,0.2,0.51,982.46,1222.92
-2.53,8.27,2.76,0.41,0.37,1.11,1127.76,1381.41
-1.5,7.69,1.43,0.92,0.49,2.44,1128.35,1357.28
2.32,7.99,0.92,1.06,0.83,3.15,1205.63,1382.2
6.05,5.75,-0.74,0.79,0.47,3.26,1226.54,1374.02
9.54,2.66,-0.56,0.86,0.4,2.78,922.42,1059.03
11.86,1.59,-1.28,0.55,-0.13,2.11,924.17,1040.82
13.01,0.84,-1.83,0.33,-0.27,1.14,685.21,729.5
11.94,0.58,-1.95,-0.05,0.25,0.07,433.92,481.26
9.46,1.03,-1.38,-0.1,0.2,-0.03,351.82,408.51
9.61,0.39,-1.13,-0.11,0.02,0.12,317.69,392.98
10.15,0.6,-1.55,-0.11,-0.03,0.08,269.23,334.72
9.79,0.74,-1.33,-0.07,0.05,0.0,280.3,350.15
10.56,0.34,-0.76,-0.13,-0.13,-0.08,333.73,450.6
12.05,0.85,-1.42,-0.22,0.15,-0.65,414.48,714.93
12.73,1.75,-2.09,-0.4,-0.32,-1.17,823.15,1190.56
10.72,2.53,-0.29,-0.63,0.41,-2.13,778.71,1094.16
9.49,4.07,-0.93,-0.86,-0.11,-2.49,1386.24,1731.67
6.73,5.97,0.32,-0.85,-0.72,-2.65,1306.36,1583.03
2.44,6.61,0.29,-0.74,-0.22,-2.58,1130.89,1387.41
1.77,8.58,-0.39,-0.94,-0.58,-2.03,1138.01,1317.49
-0.89,8.32,1.87,-1.05,-0.36,-1.72,1429.78,1606.38
-2.85,8.57,3.33,-0.54,-0.23,-0.77,1353.81,1510.02
-2.92,9.57,3.56,-0.13,0.43,-0.17,1334.8,1476.98
-2.35,9.1,3.4,-0.02,0.01,0.09,1096.13,1283.05
-1.3,9.47,2.44,0.1,-0.1,0.38,1014.42,1226.85
-1.4,8.59,2.74,0.31,0.36,0.64,1300.57,1489.88
-1.87,8.17,2.55,0.9,0.31,1.62,1150.2,1276.63
-0.24,8.47,0.43,1.1,0.52,2.67,1207.23,1356.14
3.1,6.92,0.17,1.11,0.81,3.07,1211.7,1376.93
6.92,4.44,-0.64,1.11,0.2,3.38,1114.52,1264.59
11.98,1.6,-2.13,0.84,0.8,3.08,1119.48,1235.82
14.21,-0.27,-2.72,0.25,0.21,1.68,950.63,1020.08
12.42,0.06,-1.55,-0.22,0.17,0.31,621.39,709.83
10.04,0.8,-0.63,-0.21,0.04,-0.0,404.12,453.82
10.18,0.71,-0.83,-0.03,0.11,-0.02,287.89,334.22
10.1,0.56,-1.62,-0.02,-0.01,0.06,314.65,425.94
10.05,0.52,-1.51,-0.11,0.23,0.06,277.06,358.21
10.32,0.57,-1.37,-0.13,0.13,0.01,338.02,514.64
10.21,0.67,-1.29,-0.14,0.01,-0.04,250.66,328.23
9.96,0.65,-0.78,-0.18,-0.28,-0.03,342.07,504.52
12.18,0.54,-1.48,-0.26,-0.12,-0.56,320.3,425.93
11.78,1.69,-2.2,-0.45,0.02,-1.19,537.97,889.62
11.54,2.71,-1.8,-0.63,0.01,-1.74,513.37,659.02
11.54,2.71,-1.8,-0.63,0.01,-1.74,840.26,1280.75
9.66,4.21,-0.98,-0.78,-0.18,-2.31,1409.33,1777.98
8.13,5.97,-0.66,-0.96,-0.41,-2.62,1202.85,1420.53
3.95,6.81,0.31,-1.04,-0.15,-2.82,1125.4,1391.06
2.44,7.41,-0.38,-1.16,-0.36,-2.3,1300.0,1519.32
-0.13,7.34,2.16,-0.76,-0.41,-1.53,1398.5,1543.9
-1.48,8.84,2.37,-0.32,0.42,-0.69,1312.88,1467.26
-1.26,9.8,2.3,-0.09,0.27,-0.07,1207.22,1357.44
-1.47,9.37,1.99,-0.01,-0.03,0.3,1037.12,1189.7
-1.63,9.31,2.02,0.04,-0.12,0.73,1341.45,1509.91
0.0,9.32,2.23,0.14,-0.06,0.78,1247.67,1436.41
-0.61,7.86,2.4,0.7,0.24,1.68,1380.08,1529.35
1.23,7.6,1.27,1.02,0.12,2.98,1270.53,1405.91
5.78,5.22,-0.08,1.25,0.37,3.38,982.48,1173.54
9.79,3.2,-1.62,1.14,0.72,3.01,1008.6,1154.63
11.49,0.71,-2.48,0.78,0.4,2.26,720.68,807.25
13.87,0.34,-2.77,0.07,0.36,0.93,607.84,657.42
11.3,0.84,-0.98,-0.26,-0.06,-0.05,438.54,474.78
9.75,0.85,-0.16,-0.14,0.08,-0.07,320.79,379.57
10.25,0.72,-0.87,-0.02,-0.06,0.03,266.08,329.58
10.38,0.85,-1.12,-0.07,-0.13,-0.01,265.65,315.85
10.25,0.9,-1.19,-0.12,0.07,-0.03,297.98,507.21
10.22,0.92,-1.0,-0.11,0.12,-0.03,290.39,358.48
10.37,1.19,-1.04,-0.08,0.18,-0.1,455.88,688.7
11.41,1.15,-1.18,-0.18,-0.03,-0.41,631.45,972.27
10.95,1.87,-1.08,-0.25,0.13,-0.88,626.51,773.05
11.38,2.69,-1.45,-0.41,-0.01,-1.44,1549.59,1904.94
10.32,3.6,-1.35,-0.81,0.17,-2.18,1443.52,1715.94
8.06,5.05,-0.53,-0.99,-0.25,-2.48,1098.36,1333.27
4.44,5.67,2.06,-0.69,0.01,-2.57,1058.59,1248.86
1.61,7.45,1.47,-0.68,0.09,-2.62,1176.36,1431.46
-0.33,8.21,1.02,-0.69,-0.1,-2.17,1385.66,1552.67
-2.13,8.38,2.17,-0.55,-0.33,-1.04,1343.11,1514.79
-1.94,8.58,2.81,-0.26,-0.03,-0.28,1144.7,1327.89
-2.5,9.62,2.54,-0.11,0.03,0.02,1151.73,1351.53
-2.04,9.01,2.7,-0.05,-0.02,0.19,1241.44,1451.98
-2.19,9.06,2.44,0.14,0.08,0.65,1420.83,1575.85
-3.37,8.33,2.39,0.33,0.04,1.72,1194.09,1384.68
-0.06,7.74,2.47,0.66,-0.07,2.74,1302.7,1446.76
4.33,5.99,1.36,1.16,0.35,3.22,1308.88,1455.49
8.75,5.14,-1.62,1.09,-0.01,3.02,960.67,1092.84
8.38,1.69,-1.03,0.99,0.41,2.77,938.82,1107.58
11.82,0.03,-2.05,0.68,-0.16,2.51,789.08,883.23
14.4,-0.71,-2.08,0.05,0.33,0.8,601.4,655.98
10.82,0.03,-0.96,-0.22,0.11,-0.28,442.76,480.04
9.62,0.47,-0.96,-0.06,-0.12,-0.06,306.69,362.29
9.84,0.39,-1.0,-0.0,0.12,0.07,285.98,341.45
10.01,0.12,-1.1,-0.04,-0.07,0.03,236.81,287.52
10.12,0.35,-0.91,-0.12,0.01,-0.05,279.88,330.39
9.91,0.4,-0.68,-0.11,0.07,0.04,315.55,434.85
10.79,0.22,-0.99,-0.12,0.0,-0.03,380.33,555.71
10.46,0.41,-0.71,-0.15,-0.15,-0.19,720.33,1155.54
13.09,0.57,-1.38,-0.21,-0.11,-0.71,763.87,1158.04
13.66,1.47,-2.37,-0.43,0.22,-1.96,938.65,1246.34
9.94,3.22,-2.69,-0.91,-0.25,-2.71,1379.43,1703.68
6.75,4.25,0.19,-1.14,-0.1,-2.95,1321.35,1553.94
4.02,5.83,1.24,-0.99,-0.56,-2.84,896.25,1048.77
1.53,8.73,1.16,-0.73,-0.5,-2.38,902.73,1125.42
-2.82,8.42,1.79,-0.63,0.01,-1.87,1398.01,1670.91
-1.81,10.24,1.74,-0.46,0.08,-0.87,1397.11,1550.06
-3.1,8.9,2.73,-0.19,-0.15,0.12,1250.05,1407.77
-2.27,9.61,2.41,0.1,0.38,0.51,1274.73,1453.15
-2.55,9.0,2.69,0.18,0.43,0.67,1356.68,1538.92
0.0,8.36,1.54,0.6,0.57,1.76,1251.73,1402.29
1.48,7.66,1.25,0.62,0.1,2.44,984.57,1153.95
3.39,6.58,1.12,0.95,-0.12,3.17,967.46,1070.68
8.65,4.1,-0.79,1.03,0.33,3.22,834.36,952.18
11.53,2.01,-1.36,0.63,0.51,2.53,647.65,749.67
13.11,0.85,-0.66,0.3,-0.02,1.5,607.73,643.72
13.31,0.9,-1.4,0.04,-0.01,0.18,446.39,468.76
10.41,1.25,-1.04,-0.0,0.04,-0.15,290.14,336.29
9.7,1.53,-0.85,-0.08,0.0,0.09,201.43,229.58
10.07,1.07,-1.08,-0.13,0.11,0.13,176.31,201.13
9.81,0.75,-0.63,-0.12,0.06,0.02,171.51,217.13
9.84,1.01,-0.77,-0.07,0.07,0.04,190.24,234.51
10.42,1.03,-1.07,-0.06,0.11,0.07,213.06,286.24
9.94,0.94,-0.51,-0.16,0.11,0.11,242.92,352.05
10.82,0.82,-0.88,-0.19,0.08,-0.11,527.37,893.6
13.43,1.15,-1.49,-0.29,-0.23,-0.77,1003.13,1439.63
11.94,1.94,-0.27,-0.25,0.06,-1.94,738.95,1056.77
9.82,3.72,-0.82,-0.6,-0.35,-2.43,1280.64,1636.39
8.09,5.21,-0.97,-1.01,-0.01,-2.81,1626.75,1861.85
6.76,6.36,0.48,-1.01,-0.29,-3.03,1475.94,1631.99
0.15,6.71,2.56,-0.83,-0.92,-2.7,1212.81,1394.15
-1.21,8.85,1.63,-0.3,0.01,-1.33,1313.4,1562.18
-1.83,9.1,1.88,-0.3,0.04,-0.61,1572.95,1687.37
-1.82,9.82,1.98,-0.09,-0.09,0.3,1392.16,1520.83
-1.4,9.68,2.63,-0.03,-0.05,0.47,1214.37,1388.89
-2.49,8.79,3.81,0.48,-0.03,1.67,1382.46,1522.28
1.06,7.41,2.3,1.06,0.15,2.76,1427.26,1565.23
5.27,6.85,-0.04,1.31,0.51,3.19,1315.65,1475.28
8.12,3.83,-1.66,1.25,-0.18,2.9,1467.45,1585.75
10.61,1.77,-2.9,0.91,0.36,2.2,1375.16,1512.64
9.14,0.23,-2.72,0.6,-0.1,1.98,1323.5,1500.56
11.54,-0.97,-4.12,0.18,-0.63,1.83,1327.11,1397.62
12.36,-1.74,-2.76,-0.19,0.2,0.63,855.51,939.91
10.19,-1.56,-2.21,-0.01,-0.12,0.0,646.19,722.18
9.28,-1.4,-2.43,0.07,-0.04,0.22,633.53,717.03
10.28,-1.67,-2.85,-0.13,-0.03,0.16,539.03,627.69
10.65,-1.68,-2.78,-0.12,0.03,-0.13,455.47,521.48
9.76,-1.32,-2.69,-0.11,0.26,-0.09,396.98,451.95
9.76,-1.32,-2.69,-0.11,0.26,-0.09,471.1,621.17
9.96,-1.0,-3.25,-0.12,0.19,-0.14,575.25,682.83
9.93,-1.13,-2.26,-0.09,0.02,-0.12,582.96,753.29
11.41,-0.79,-2.89,-0.1,-0.08,-0.29,699.15,898.2
12.98,-0.63,-3.42,-0.05,0.29,-1.01,759.83,976.35
12.91,0.73,-4.41,-0.2,-0.34,-2.0,670.81,832.92
10.57,2.36,-4.16,-0.75,0.01,-2.63,669.1,884.54
7.44,3.53,-3.03,-1.06,-0.22,-2.81,1378.75,1786.07
4.24,6.39,-1.33,-1.12,-0.81,-2.84,1625.65,1809.35
1.74,7.04,-0.71,-1.11,-0.97,-2.59,1472.66,1635.37
0.91,8.84,0.32,-0.64,-0.22,-1.26,1356.53,1533.19
-0.03,8.81,1.26,-0.24,-0.01,-0.4,1383.17,1532.75
-0.38,10.15,0.07,-0.01,0.34,0.12,1607.9,1684.39
-1.53,9.6,0.01,0.05,0.23,0.66,1418.91,1547.68
-0.12,8.7,0.02,0.32,0.18,1.81,1407.72,1523.21
2.6,7.54,0.56,0.43,0.15,2.42,1529.25,1620.07
5.54,6.45,-0.35,0.51,0.08,2.57,1410.46,1520.94
8.28,4.98,-1.43,0.68,0.18,2.53,1471.37,1628.01
10.23,2.91,-1.95,0.72,0.41,2.05,1338.72,1481.73
10.02,0.93,-2.54,0.49,-0.08,1.82,1285.07,1380.44
11.09,-0.57,-2.52,0.26,-0.15,1.53,970.77,1015.34
12.3,-1.16,-1.5,0.03,-0.36,0.88,602.94,668.49
11.05,-1.48,-2.3,-0.03,0.47,-0.07,464.0,525.65
9.65,-0.9,-2.3,-0.11,0.26,-0.09,409.57,457.16
9.88,-0.87,-1.89,-0.08,-0.03,0.13,408.64,465.74
10.53,-1.19,-1.7,-0.09,0.03,0.01,339.02,381.66
10.01,-1.11,-1.51,-0.07,0.14,-0.07,317.22,426.27
10.05,-0.79,-1.68,-0.07,0.09,-0.04,370.65,480.09
10.18,-0.64,-1.9,-0.07,0.06,-0.01,446.17,561.9
10.84,-0.71,-1.75,-0.09,-0.13,-0.3,722.17,957.01
11.29,-0.32,-1.92,-0.12,0.34,-0.76,704.99,950.01
10.74,0.49,-1.92,-0.11,0.2,-1.27,895.65,1219.02
11.71,1.67,-2.47,-0.41,-0.12,-1.95,561.31,650.91
9.77,3.1,-2.82,-0.63,0.01,-2.32,1200.92,1526.76
8.55,5.19,-2.8,-0.85,0.61,-2.33,1467.66,1748.3
6.21,6.84,-0.68,-0.79,-0.21,-2.54,1533.23,1689.18
1.53,7.59,0.02,-0.82,-0.74,-2.24,1516.68,1636.3
0.15,9.19,0.43,-0.69,-0.33,-1.49,1463.43,1581.86
-0.82,9.26,1.9,-0.45,-0.11,-0.61,1561.03,1662.48
-0.65,9.92,1.47,-0.07,0.22,0.14,1464.75,1584.27
0.22,9.65,1.02,0.02,0.01,0.26,1347.72,1472.81
-1.25,8.77,1.81,0.34,0.14,1.28,1467.29,1574.53
-0.41,7.37,1.24,0.64,0.56,2.09,1342.08,1490.11
5.19,7.38,-0.71,0.94,0.56,2.5,1488.26,1613.7
7.46,5.92,-0.38,0.86,0.39,2.54,1338.24,1490.71
9.15,4.0,-1.11,0.66,0.16,2.21,1409.07,1550.14
9.48,2.49,-1.12,0.45,0.08,1.89,1337.56,1456.97
9.8,1.28,-1.7,0.46,0.26,1.62,1052.04,1121.15
10.71,-0.3,-1.77,0.1,0.04,1.39,632.4,703.51
12.45,-1.18,-1.38,-0.16,0.35,0.63,467.38,529.65
11.1,-1.18,-1.0,-0.15,0.13,-0.08,611.57,737.55
10.12,-1.11,-1.24,0.06,-0.02,-0.04,431.56,476.47
10.05,-0.7,-1.81,-0.02,0.08,0.01,368.16,421.53
10.15,-0.74,-1.77,-0.09,0.08,-0.01,305.72,324.54
9.83,-0.75,-1.4,-0.14,0.14,-0.01,234.96,279.64
9.82,-0.83,-1.42,-0.09,-0.01,0.03,339.44,431.77
10.34,-0.91,-1.31,-0.09,-0.11,-0.07,271.63,334.89
11.74,-0.74,-1.64,-0.11,-0.31,-0.46,509.21,812.22
11.79,0.11,-2.32,-0.18,-0.02,-1.0,408.28,543.5
11.19,1.15,-2.82,-0.34,0.21,-1.45,625.05,810.32
10.15,2.17,-1.98,-0.71,0.16,-1.88,658.72,912.52
8.59,3.93,-0.23,-0.83,-0.21,-2.22,633.03,802.47
6.31,6.54,-0.03,-0.68,-0.32,-2.42,1173.8,1590.4
4.32,7.12,-0.31,-0.78,-0.4,-2.06,1341.81,1657.45
2.96,8.12,0.51,-1.05,-0.75,-1.93,1446.38,1637.18
1.01,7.62,1.56,-0.71,0.06,-1.62,1139.0,1350.7
-0.97,9.06,1.76,-0.2,0.25,-0.38,1059.15,1241.42
-0.42,9.7,1.74,-0.16,0.02,0.13,1057.7,1258.16
-0.26,9.25,1.86,0.1,0.19,0.61,1485.52,1649.0
-0.05,8.0,2.22,0.58,0.54,1.45,1570.11,1697.78
2.68,8.38,0.58,0.99,0.75,2.37,1452.13,1579.33
5.31,7.07,0.2,0.91,0.38,2.54,1406.03,1541.27
8.5,5.77,-0.77,0.88,0.75,2.28,1361.59,1503.16
10.62,4.07,-2.57,0.73,-0.03,2.24,1273.35,1409.89
12.48,1.33,-3.45,0.34,-0.09,1.8,1111.29,1147.97
10.27,0.28,-1.45,0.07,-0.19,1.51,641.34,699.8
11.46,-0.91,-1.18,0.07,0.09,1.43,464.21,542.03
13.56,-2.16,-1.98,0.05,-0.02,0.35,366.92,417.23
9.37,-1.47,-1.99,-0.07,-0.02,-0.26,374.96,440.18
9.7,-1.15,-2.1,-0.13,0.29,0.12,313.73,371.54
10.34,-1.35,-1.44,-0.23,0.01,0.08,259.58,294.89
9.91,-1.47,-1.12,-0.16,-0.02,-0.03,251.13,288.48
10.12,-1.42,-1.34,-0.1,0.05,0.05,269.07,317.93
10.5,-1.37,-1.61,-0.1,0.0,-0.01,402.77,551.9
11.71,-1.29,-1.85,-0.19,-0.14,-0.37,438.76,709.9
10.56,-0.57,-2.02,-0.29,-0.09,-0.78,637.94,1006.7
10.27,0.0,-2.29,-0.42,0.05,-1.01,675.82,890.71
10.25,1.06,-2.08,-0.5,-0.21,-1.02,774.8,1076.5
10.61,1.8,-1.82,-0.57,-0.07,-1.36,799.57,993.52
10.82,3.49,-2.28,-0.76,-0.18,-1.87,875.73,1151.63
8.84,4.89,-2.54,-0.96,-0.23,-2.29,709.48,891.67
6.37,6.28,-1.43,-1.14,-0.47,-2.41,1499.85,1859.62
3.44,8.36,0.11,-1.15,-0.25,-2.24,1359.79,1562.27
-0.74,7.27,1.23,-0.79,-0.13,-1.74,1409.38,1598.98
-0.46,8.93,1.43,-0.62,-0.19,-0.9,1430.93,1566.67
-1.02,9.22,1.28,-0.13,-0.03,0.18,1430.81,1565.15
0.2,9.6,1.39,-0.09,-0.21,0.3,1429.71,1543.85
0.21,9.04,1.67,0.07,0.07,0.48,1521.32,1630.9
0.93,8.69,1.12,0.52,0.26,1.64,1417.19,1546.17
2.01,7.79,1.29,0.67,0.45,2.12,1433.52,1541.09
3.79,6.19,0.08,0.9,0.52,2.74,1338.19,1451.27
7.67,4.74,-0.92,0.94,0.23,2.94,1314.75,1457.63
7.67,4.74,-0.92,0.94,0.23,2.94,1328.32,1497.08
11.16,2.04,-1.4,0.97,0.34,2.68,1458.92,1573.85
12.44,-0.25,-2.37,0.6,-0.09,1.82,1257.62,1285.65
10.73,-0.89,-2.3,0.24,0.13,1.29,659.25,716.49
12.36,-1.68,-2.32,0.03,0.12,0.9,511.99,604.75
11.52,-2.15,-0.97,0.0,-0.14,0.0,401.71,464.46
9.62,-1.71,-0.9,0.1,-0.02,-0.13,445.86,547.42
10.05,-1.53,-2.27,-0.04,0.23,-0.03,500.93,578.86
9.56,-1.33,-2.1,-0.17,0.11,-0.04,418.34,484.38
9.95,-1.42,-1.67,-0.09,0.11,-0.08,420.5,495.55
9.65,-1.34,-1.54,-0.05,-0.06,-0.09,377.04,439.55
10.12,-1.34,-1.81,-0.1,-0.0,-0.0,476.31,586.73
10.55,-1.32,-1.21,-0.18,-0.07,-0.09,357.74,430.47
10.71,-1.24,-1.27,-0.16,-0.15,-0.21,768.21,1126.7
13.69,-0.74,-3.06,-0.14,-0.15,-0.93,562.68,715.73
11.7,0.13,-3.09,-0.45,0.04,-1.86,850.9,1152.11
10.21,1.9,-2.77,-0.97,0.1,-2.27,663.3,837.72
9.12,3.67,-1.6,-1.08,0.08,-2.57,1713.83,2021.63
6.45,5.35,-1.02,-1.1,-0.16,-2.38,1611.28,1788.22
5.06,6.48,-0.23,-1.03,-0.28,-2.2,1353.76,1516.33
2.92,7.78,1.06,-0.87,-0.21,-1.76,1374.97,1520.79
0.34,8.62,1.95,-0.5,0.26,-1.41,1250.21,1413.66
-1.49,9.36,1.61,-0.14,0.05,-0.29,1083.26,1224.94
-0.89,9.86,1.87,-0.1,-0.06,0.15,1534.73,1668.31
-0.85,8.76,2.12,0.14,0.04,0.67,1509.14,1633.84
1.03,8.51,1.31,0.59,0.19,1.83,1473.68,1591.88
1.96,7.38,1.03,0.75,-0.04,2.27,1199.83,1365.4
5.34,5.54,-0.31,0.99,0.16,2.74,1104.62,1279.44
9.77,4.35,-1.81,0.9,0.6,2.32,1146.59,1337.48
8.88,2.51,-2.28,0.86,0.4,1.97,950.12,1055.9
10.26,1.38,-2.64,0.69,-0.02,2.13,792.91,867.95
13.12,-0.41,-2.34,0.25,0.43,1.35,638.73,664.33
12.05,-0.53,-1.91,-0.03,0.11,0.3,394.1,424.98
10.28,-0.58,-1.49,-0.11,0.06,-0.14,313.83,405.63
9.57,-0.21,-1.29,-0.06,0.03,-0.02,266.16,287.88
10.37,-0.56,-1.59,-0.11,0.07,0.08,200.53,218.22
10.08,-0.45,-1.35,-0.1,0.07,-0.03,305.61,377.27
10.24,-0.35,-1.42,-0.08,-0.07,0.0,235.38,310.81
10.29,-0.37,-1.52,-0.07,0.07,0.03,225.53,270.32
10.17,-0.34,-1.58,-0.09,0.04,-0.04,343.05,516.74
10.89,-0.24,-1.21,-0.13,-0.08,-0.25,339.32,441.73
11.42,0.19,-1.65,-0.19,0.02,-0.65,389.85,516.56
12.18,0.82,-1.77,-0.35,-0.1,-1.21,671.68,982.8
11.8,1.84,-2.05,-0.6,0.24,-2.09,515.45,606.41
9.27,3.76,-1.74,-0.79,-0.18,-2.35,689.2,880.63
6.63,5.17,0.4,-0.85,-0.44,-2.45,929.4,1242.62
5.13,7.06,-0.46,-0.73,-0.45,-2.52,1490.98,1815.86
2.01,8.67,-0.62,-0.85,-0.46,-2.05,1512.43,1697.6
-0.66,7.74,1.81,-0.82,-0.86,-1.29,1399.46,1565.82
-1.01,8.83,1.58,-0.34,0.19,-0.62,1492.98,1630.55
-2.0,8.55,2.24,-0.25,0.23,-0.13,1246.27,1392.01
-0.74,9.69,1.73,-0.0,0.1,0.46,1333.84,1478.44
0.16,9.74,1.46,0.07,0.08,0.5,1549.67,1663.05
1.04,9.41,1.64,0.17,0.26,0.72,1492.56,1611.18
0.68,7.88,1.76,0.54,0.08,1.6,1518.72,1606.77
2.83,7.53,0.68,0.95,0.37,2.52,1351.64,1492.15
6.29,6.08,-0.49,0.95,0.58,2.74,1069.46,1235.69
8.52,2.86,-1.39,0.92,0.03,2.9,1116.74,1341.92
11.88,1.22,-2.19,0.82,0.29,2.56,1293.18,1506.06
13.08,-0.52,-2.7,0.48,0.19,1.67,1060.85,1127.76
13.23,-0.62,-2.72,-0.01,0.14,0.22,804.68,834.95
9.45,0.12,-1.68,-0.15,-0.02,-0.22,463.38,509.61
9.09,-0.04,-0.78,-0.1,0.04,0.07,321.13,356.46
10.26,-0.16,-1.03,-0.07,0.03,0.11,340.24,420.15
10.63,-0.28,-1.28,-0.09,0.02,0.01,284.53,333.59
10.07,-0.14,-1.33,-0.1,0.05,-0.01,224.09,274.94
10.26,-0.17,-1.3,-0.09,0.05,0.02,214.52,254.71
10.4,-0.06,-1.34,-0.07,0.03,-0.04,302.0,517.48
10.58,-0.03,-1.43,-0.09,-0.06,-0.16,417.76,578.18
12.35,0.38,-2.14,-0.21,0.04,-0.56,619.77,938.71
11.89,1.02,-1.75,-0.38,0.01,-1.33,523.26,707.43
11.21,2.15,-1.37,-0.55,-0.01,-1.91,621.45,940.62
10.5,4.01,-1.64,-0.74,-0.23,-2.37,986.84,1362.01
8.11,5.77,-2.15,-1.04,-0.15,-2.76,1558.53,1870.13
3.59,6.35,0.13,-1.07,-0.87,-2.38,1425.5,1665.64
2.19,7.57,0.5,-0.91,-0.63,-2.01,1364.22,1539.5
-1.26,8.06,1.63,-0.52,0.18,-1.27,1453.22,1586.79
-0.92,9.96,1.09,-0.54,-0.21,-0.88,1433.95,1563.77
-1.62,9.24,2.28,-0.22,-0.04,-0.12,1381.01,1515.75
-1.16,9.59,1.92,-0.13,-0.07,-0.02,1423.29,1558.56
-1.58,9.35,2.32,-0.05,-0.04,0.11,1509.24,1617.78
-1.55,9.84,2.0,0.13,-0.08,0.77,1499.07,1602.8
-1.65,7.34,2.3,0.62,0.2,1.93,1414.07,1518.23
1.32,7.4,1.03,0.97,0.37,3.2,1284.0,1449.49
5.54,4.57,-0.4,1.11,0.33,3.57,1196.55,1348.91
10.84,3.2,-1.29,0.94,0.53,3.22,1186.96,1351.19
11.84,0.74,-1.09,0.57,0.21,2.32,1166.44,1376.93
12.71,0.06,-1.79,0.28,-0.01,1.2,1179.98,1313.16
11.15,-0.25,-0.96,0.12,-0.02,0.36,1018.53,1071.14
10.74,-0.34,-1.41,0.02,0.06,-0.07,663.19,722.76
9.8,0.35,-1.42,-0.09,-0.09,-0.06,488.99,529.99
9.87,0.21,-1.28,-0.16,0.1,0.04,315.83,356.32
10.07,0.08,-0.94,-0.13,-0.04,0.04,282.29,327.57
10.19,-0.03,-1.02,-0.11,-0.04,-0.0,238.01,296.07
10.38,0.08,-1.2,-0.09,0.02,-0.03,394.89,508.54
10.32,0.26,-1.16,-0.08,0.07,-0.06,242.5,294.57
11.24,0.57,-1.2,-0.12,-0.12,-0.22,245.55,280.66
11.16,0.56,-0.87,-0.2,0.09,-0.63,566.42,837.66
11.99,1.23,-1.31,-0.3,0.16,-1.28,442.21,592.2
11.2,2.55,-1.64,-0.46,-0.04,-1.92,524.88,647.16
9.36,4.24,-2.09,-0.73,0.12,-2.35,511.19,603.79
7.03,5.8,-0.86,-1.01,-0.36,-2.53,1229.98,1643.32
7.03,5.8,-0.86,-1.01,-0.36,-2.53,1305.37,1619.68
3.86,6.38,0.1,-0.98,-0.41,-2.49,1332.32,1580.44
1.25,6.96,1.41,-0.9,-0.6,-2.06,1413.95,1633.69
-0.22,8.16,1.91,-0.6,-0.2,-1.31,1472.54,1598.68
-0.73,9.81,2.09,-0.45,-0.22,-0.76,1299.85,1433.0
-1.24,9.22,2.57,-0.16,0.15,-0.21,1269.47,1414.8
-0.53,9.7,2.18,-0.07,0.16,0.05,1465.42,1608.63
-0.86,9.21,2.46,0.0,0.16,0.15,1461.12,1582.98
-1.09,9.32,2.12,0.07,0.14,0.16,1422.79,1545.2
-1.58,8.21,2.41,0.3,0.36,0.71,1249.57,1366.95
-1.89,7.43,2.2,0.79,0.37,2.35,1019.13,1125.61
3.73,7.86,0.77,1.03,0.46,2.97,1095.53,1249.17
5.6,5.88,0.26,0.88,0.4,2.93,1225.44,1407.25
9.54,4.33,-1.3,0.77,0.44,2.91,1300.24,1470.23
12.26,1.88,-1.68,0.42,-0.18,2.43,1005.77,1073.94
14.53,0.74,-2.49,0.16,0.23,1.16,851.91,889.72
10.6,0.83,-1.03,-0.12,-0.01,0.19,525.41,562.16
10.21,0.75,-0.87,-0.08,0.17,0.06,333.1,370.05
9.97,0.78,-0.83,-0.04,0.04,-0.0,290.16,333.12
10.0,0.96,-1.28,-0.06,0.16,0.02,333.78,419.89
9.99,0.84,-0.62,-0.11,-0.03,0.05,202.47,231.65
9.93,0.86,-0.33,-0.11,0.05,0.02,198.91,223.42
10.22,0.68,-0.23,-0.08,0.01,0.03,231.51,360.5
10.51,0.6,-0.43,-0.05,0.01,-0.05,246.33,366.46
11.41,0.91,-0.9,-0.08,-0.06,-0.33,466.08,739.04
11.9,1.52,-1.17,-0.18,0.29,-0.97,365.06,461.28
12.05,2.45,-0.97,-0.4,-0.11,-1.73,606.26,815.56
9.89,3.9,-0.47,-0.76,-0.15,-2.45,467.16,601.95
6.16,4.98,0.72,-0.84,-0.45,-2.6,1068.06,1409.21
5.28,6.96,0.07,-0.99,-0.53,-2.45,1551.14,1870.29
1.97,7.51,0.96,-1.06,-0.56,-2.33,1385.41,1612.15
0.29,7.86,1.47,-0.75,0.03,-1.6,1511.49,1668.59
-0.88,8.77,2.67,-0.4,0.27,-0.94,1225.95,1360.97
-1.78,8.44,2.64,-0.2,0.13,-0.36,1190.9,1304.49
-1.23,9.57,2.34,-0.09,-0.02,0.11,1047.12,1182.25
-1.23,9.0,2.65,-0.01,-0.11,0.36,1281.94,1487.68
-1.55,8.5,2.92,0.24,0.29,0.85,1307.75,1491.99
-0.88,7.93,2.25,0.58,0.15,1.85,1263.55,1434.27
1.41,7.56,1.56,0.92,0.21,2.78,1108.79,1242.53
5.36,6.64,-0.06,1.1,0.24,3.08,995.83,1146.24
7.84,4.05,-0.72,0.95,0.5,3.05,949.99,1136.12
10.2,1.56,-0.78,0.82,0.14,3.0,1042.19,1135.86
14.07,-0.75,-0.49,0.37,-0.04,1.97,727.52,775.77
13.71,-0.82,-1.18,-0.03,0.28,0.15,462.2,511.57
10.16,0.07,-0.72,-0.01,-0.15,-0.18,289.82,351.93
10.0,0.14,-1.03,0.03,0.21,0.05,321.05,385.3
9.98,0.07,-1.48,-0.05,0.13,0.01,277.63,318.38
9.7,0.25,-0.93,-0.14,-0.02,-0.08,293.66,357.54
10.2,0.32,-0.81,-0.15,-0.03,0.01,212.33,250.07
10.18,0.05,-0.7,-0.08,0.0,0.07,214.21,244.37
10.18,0.05,-0.91,-0.05,0.12,0.03,196.96,228.38
10.36,0.22,-1.18,-0.07,0.1,-0.06,236.69,291.76
10.86,0.45,-1.4,-0.11,-0.13,-0.19,503.38,780.25
11.44,0.43,-0.74,-0.22,0.25,-0.66,565.96,829.97
12.32,1.34,-1.22,-0.33,-0.16,-1.29,509.33,592.7
11.89,2.35,-1.39,-0.59,0.23,-2.18,834.98,1173.93
8.77,3.99,-0.82,-0.8,-0.04,-2.52,683.99,851.93
6.64,7.05,-0.98,-0.92,-0.13,-2.65,724.59,959.76
4.16,6.66,0.41,-1.01,-0.73,-2.54,1362.33,1703.38
1.33,7.7,1.24,-0.88,-0.11,-2.11,1526.25,1761.75
-0.8,8.27,2.56,-0.76,-0.42,-1.57,1457.27,1599.45
-1.86,8.43,3.29,-0.34,0.36,-0.88,1367.48,1493.83
-1.97,9.11,2.87,-0.13,0.03,0.01,1175.22,1311.03
-1.78,9.31,2.65,-0.06,0.16,0.02,1096.38,1226.1
-1.46,9.28,2.62,0.02,0.23,0.24,1134.5,1317.5
-1.03,9.73,2.88,0.06,-0.14,0.33,1091.0,1349.95
-0.64,8.21,2.35,0.51,0.7,0.68,1120.46,1329.96
-1.08,8.03,2.01,0.76,0.43,1.84,1181.36,1355.74
0.77,6.83,1.11,0.9,0.04,2.93,1120.82,1269.78
5.44,6.37,-0.49,1.05,0.3,3.4,936.19,1081.95
9.27,3.56,-1.07,0.85,0.44,3.29,935.76,1104.19
11.79,0.97,-1.09,0.59,0.2,2.56,951.9,1119.52
12.3,-0.01,-1.81,0.21,0.2,1.33,813.17,855.04
11.6,0.17,-0.97,-0.05,0.16,0.46,559.12,593.7
10.7,-0.14,-0.41,-0.1,-0.07,0.04,345.59,408.34
10.19,0.2,-0.31,-0.04,-0.08,-0.03,281.06,316.15
10.64,0.2,-0.98,-0.05,0.09,0.02,266.35,318.39
10.45,0.16,-1.06,-0.07,0.15,-0.02,260.95,304.59
9.86,0.39,-0.84,-0.11,0.15,-0.03,232.15,275.52
10.38,0.43,-0.72,-0.11,0.07,-0.03,232.12,326.75
10.74,0.43,-0.77,-0.1,0.02,-0.1,323.93,534.97
11.31,0.76,-1.11,-0.18,-0.17,-0.3,562.31,800.34
11.87,0.79,-0.91,-0.27,-0.16,-0.69,778.82,1030.99
12.74,1.73,-1.28,-0.39,0.35,-1.59,780.21,1098.18
10.1,3.18,-1.81,-0.6,-0.14,-2.23,609.55,724.62
7.74,4.55,-1.16,-0.85,0.21,-2.42,706.99,968.15
6.62,6.83,-0.92,-0.8,-0.25,-2.66,1301.02,1653.01
1.7,6.38,1.0,-0.98,-0.85,-2.54,1491.33,1773.31
-2.26,6.63,2.46,-0.96,-0.59,-2.21,1418.71,1625.29
-2.73,9.17,2.93,-0.39,0.03,-0.81,1436.85,1566.44
-2.05,9.22,2.28,-0.18,-0.15,-0.18,1167.1,1347.23
-1.3,9.45,2.5,-0.08,-0.32,0.12,1129.29,1282.47
-0.86,8.86,2.41,-0.0,-0.13,0.34,1012.01,1140.01
-0.63,9.07,2.08,0.35,0.14,1.02,1427.2,1610.4
-0.3,8.62,1.67,0.52,0.04,1.59,1299.74,1459.56
0.13,7.83,1.68,0.8,0.29,2.64,1247.16,1412.98
4.99,6.5,-0.16,1.07,0.41,3.1,1038.29,1175.52
7.48,2.62,-1.36,1.01,0.41,3.37,1106.85,1308.59
12.69,0.4,-2.19,0.75,0.59,2.77,927.8,1054.28
13.77,-0.64,-1.71,0.28,0.22,1.22,944.13,987.89
12.07,-0.04,-0.88,-0.22,-0.07,-0.15,630.49,669.34
9.63,0.77,-0.82,-0.36,-0.12,-0.03,341.42,400.64
9.63,0.77,-0.82,-0.36,-0.12,-0.03,364.11,434.49
10.32,0.62,-1.0,-0.48,0.34,0.2,1278.92,1666.36
10.29,0.4,-0.44,-0.43,0.28,0.02,1482.12,1816.16
9.94,0.75,-0.31,-0.26,0.17,-0.08,888.82,965.79
9.94,0.64,0.1,-0.15,0.08,-0.09,716.64,742.86
10.27,0.77,0.19,-0.09,0.18,-0.12,438.5,471.93
10.53,1.18,0.36,-0.1,0.23,-0.13,555.65,700.8
10.12,1.25,0.4,-0.11,0.21,-0.07,661.66,792.84
