ax,ay,az,gx,gy,gz,mav,rms
9.31,1.7,2.74,-0.09,0.08,0.04,0.0,391.4
9.38,1.89,2.93,-0.04,0.05,0.03,0.0,357.23
9.34,2.17,3.46,0.03,-0.06,0.12,0.0,302.38
9.13,2.06,3.13,0.08,-0.25,0.21,0.0,0.0
9.13,1.53,2.42,0.21,-0.31,0.22,0.0,0.0
9.88,1.36,1.47,0.3,-0.32,0.2,0.0,0.0
10.0,1.16,1.15,0.23,-0.22,0.2,0.0,0.0
10.13,0.98,0.72,0.08,-0.03,0.21,0.0,411.53
11.7,0.79,0.45,-0.16,0.04,0.07,512.1,708.17
11.29,0.84,1.58,-0.1,0.27,-0.46,595.59,766.91
13.81,1.33,-0.17,-0.39,0.4,-1.6,498.46,631.48
11.04,2.71,-0.28,-0.78,-0.28,-2.64,470.55,628.77
10.05,3.71,-0.05,-1.32,-0.99,-3.2,813.76,1051.31
6.66,5.09,0.96,-1.29,-0.9,-3.32,1172.5,1535.8
-3.52,8.64,5.53,-0.05,0.24,0.18,677.01,768.94
-4.85,8.3,5.51,0.38,1.05,0.96,571.44,624.5
-3.32,6.74,3.97,0.86,1.44,2.55,444.98,473.18
-0.05,7.06,2.15,0.79,0.69,3.84,316.58,378.22
8.57,5.78,0.77,0.44,0.85,3.89,336.1,424.97
10.23,2.73,2.68,0.19,0.79,2.99,432.89,641.81
10.47,1.78,1.87,0.32,-0.29,1.82,0.0,324.84
9.98,1.05,0.16,0.05,-0.82,1.63,0.0,334.9
14.19,0.21,0.5,0.03,-0.04,0.98,0.0,0.0
7.97,0.93,1.51,-0.07,0.66,-0.18,0.0,0.0
10.77,0.44,0.86,-0.15,0.26,0.04,0.0,0.0
10.06,0.63,0.98,-0.08,0.11,0.0,0.0,0.0
9.75,0.43,1.58,-0.11,0.15,-0.02,0.0,0.0
9.5,0.73,1.46,-0.11,-0.19,0.05,0.0,449.74
10.81,0.61,1.28,-0.09,-0.13,-0.02,397.91,702.27
12.29,0.79,1.41,-0.18,-0.41,-0.84,431.76,625.35
12.57,1.82,0.06,-0.36,0.54,-1.71,590.17,901.9
10.56,2.83,0.08,-0.65,-0.32,-2.35,649.07,923.97
8.85,3.94,0.88,-0.92,-0.53,-2.67,775.54,1062.14
4.8,5.62,2.04,-0.96,-0.77,-2.94,703.73,935.64
4.23,7.53,1.61,-1.24,-0.9,-3.08,902.94,1273.7
-1.33,3.59,4.78,-1.45,0.43,-3.37,1005.68,1351.84
-4.02,7.23,5.98,-0.47,0.51,-1.3,896.26,1162.56
-3.32,8.3,4.6,-0.07,0.31,-0.31,801.57,902.45
-3.25,8.3,4.72,0.14,0.43,0.29,670.07,829.54
-1.45,7.99,3.79,0.26,0.15,0.69,536.92,729.24
-3.8,5.26,4.21,0.81,0.46,3.34,395.5,443.8
1.86,5.92,1.77,0.98,0.1,4.22,430.95,560.72
5.68,4.62,1.27,0.65,0.46,4.27,341.12,469.63
11.65,1.46,1.15,0.42,0.71,3.34,459.93,653.41
11.94,0.65,0.62,0.21,0.3,2.06,302.62,334.6
12.5,0.08,1.36,0.12,-0.38,1.17,0.0,0.0
12.77,0.4,0.49,0.11,-0.02,-0.18,0.0,306.66
9.11,0.75,1.44,-0.09,-0.17,0.1,0.0,0.0
9.72,0.19,1.63,-0.1,0.04,0.02,0.0,0.0
9.97,0.45,0.92,-0.14,0.09,-0.07,0.0,0.0
10.16,0.44,1.53,-0.11,0.02,-0.03,0.0,0.0
9.95,0.74,1.18,-0.1,0.02,-0.02,0.0,380.22
10.23,0.5,1.46,-0.09,0.02,0.02,313.54,460.28
13.51,0.59,1.02,-0.14,-0.42,-0.72,432.03,635.92
11.45,1.35,1.2,-0.23,0.85,-1.67,387.32,476.78
13.57,3.21,0.14,-0.51,-0.36,-2.44,591.49,857.23
9.27,4.03,1.07,-0.87,-0.83,-3.23,642.42,873.98
4.69,5.95,1.23,-1.01,-0.8,-3.47,1100.5,1491.97
-6.61,6.16,7.02,-0.55,-0.3,-0.68,938.65,1185.23
-3.03,8.14,5.27,-0.04,0.2,0.23,586.91,713.1
-3.24,7.4,5.54,0.42,0.88,1.31,392.99,462.11
-2.75,6.42,4.31,0.86,1.06,2.97,323.41,383.12
1.57,7.06,2.37,0.77,0.09,3.65,312.7,362.46
6.52,5.98,1.42,0.85,-0.02,3.46,0.0,366.34
9.01,3.84,1.36,0.53,0.43,3.02,321.13,488.24
9.96,1.87,1.58,0.21,0.3,2.31,0.0,0.0
11.1,1.06,0.82,0.2,-0.34,1.89,0.0,0.0
16.66,0.28,0.24,-0.03,-0.18,0.62,0.0,363.92
6.93,1.25,1.85,-0.01,0.16,0.05,0.0,0.0
11.02,0.17,1.47,-0.14,0.27,0.03,0.0,0.0
9.6,0.57,1.43,-0.06,-0.05,0.05,0.0,0.0
9.92,0.53,1.52,-0.06,0.08,0.01,0.0,0.0
10.15,0.55,1.39,-0.08,0.09,0.04,0.0,0.0
9.95,0.5,1.46,-0.09,0.07,0.04,0.0,0.0
10.53,0.43,1.56,-0.09,0.03,-0.04,0.0,434.61
14.1,0.44,1.51,-0.14,-0.11,-0.96,429.62,672.09
9.88,2.04,0.88,-0.19,-0.44,-1.78,495.91,718.29
9.57,3.14,0.79,-0.56,-0.19,-2.05,545.94,733.68
9.38,4.9,0.83,-0.82,-0.37,-2.67,693.88,964.9
6.42,6.06,0.68,-0.97,-0.52,-3.34,731.85,1025.47
2.5,6.38,1.78,-1.24,-0.3,-3.45,825.1,1107.22
-0.92,7.84,2.84,-1.35,-0.68,-2.96,807.9,1139.18
-5.49,6.29,6.61,-0.85,-0.56,-1.53,1089.5,1399.03
-3.75,7.44,5.83,-0.17,0.0,-0.01,893.9,1146.74
-3.67,7.32,5.02,-0.02,-0.14,0.21,921.63,1123.96
-5.16,6.37,6.02,0.44,0.58,1.43,534.6,611.0
-3.42,5.63,4.96,0.89,1.41,3.28,396.4,460.44
1.33,6.09,2.96,0.94,0.54,4.15,370.22,428.47
7.38,4.77,1.88,0.64,0.16,3.95,354.85,453.84
12.75,2.68,0.76,0.4,0.08,2.94,477.21,689.01
10.52,1.87,1.59,0.21,-0.24,1.86,347.13,394.03
8.67,1.41,1.33,0.2,-0.15,1.45,0.0,0.0
13.0,0.35,1.41,0.06,0.15,1.13,0.0,0.0
8.76,0.73,1.88,-0.09,0.66,-0.26,0.0,0.0
11.49,0.25,1.18,-0.13,0.04,0.09,0.0,0.0
9.94,0.36,1.47,-0.04,-0.07,0.02,0.0,0.0
9.79,0.28,1.64,-0.1,0.16,-0.02,0.0,0.0
9.9,0.48,1.53,-0.08,0.2,-0.02,0.0,0.0
9.84,0.43,1.81,-0.09,0.17,0.01,0.0,0.0
9.86,0.41,2.01,-0.08,0.13,-0.03,318.18,597.8
11.33,0.53,2.08,-0.07,-0.06,-0.51,420.66,648.46
12.07,1.49,1.94,-0.13,-0.24,-1.38,708.43,1105.2
13.32,2.87,0.28,-0.35,-0.14,-2.24,800.02,1042.34
8.34,3.03,0.69,-0.85,-0.07,-3.43,743.02,981.6
5.51,4.11,2.09,-0.83,-0.71,-3.42,893.86,1152.25
3.77,5.11,0.73,-1.55,-1.02,-3.96,783.76,1021.15
0.37,6.51,3.05,-1.64,-1.03,-3.4,1034.98,1352.57
0.34,8.01,5.44,-0.57,-0.58,-1.1,1123.03,1398.06
-3.45,7.24,5.44,-0.11,0.37,-0.12,1153.75,1374.62
-5.73,7.08,5.69,0.34,1.13,1.06,667.57,758.42
-2.83,7.08,5.63,0.96,0.79,2.55,542.83,702.71
-0.78,7.01,2.93,0.97,0.09,3.38,445.93,544.8
4.31,6.88,1.72,0.68,1.26,3.65,423.11,490.88
10.16,5.16,0.11,0.37,-0.46,3.01,382.11,460.91
9.55,3.17,0.38,0.15,0.21,2.21,373.04,451.19
10.15,2.03,1.16,-0.0,-0.14,1.73,0.0,0.0
9.94,1.93,0.08,0.25,-0.68,1.79,0.0,0.0
12.4,-0.02,-0.95,-0.13,0.13,1.33,0.0,354.95
10.67,-0.19,0.74,-0.03,0.45,-0.04,0.0,0.0
10.9,-0.64,0.16,-0.04,-0.02,0.09,0.0,0.0
9.39,-0.64,0.97,-0.12,0.03,0.01,0.0,0.0
9.71,-0.35,0.64,-0.11,-0.01,0.03,0.0,0.0
10.24,-0.56,0.56,-0.0,0.09,0.0,0.0,0.0
9.96,-0.35,1.47,-0.0,0.0,-0.01,0.0,419.85
9.92,-0.17,0.99,-0.03,0.03,0.12,313.92,450.66
11.12,-0.39,0.84,0.01,-0.15,-0.07,337.66,418.45
13.17,0.05,-0.2,-0.08,-0.66,-0.92,619.44,1117.95
13.51,1.0,-0.94,-0.05,-0.35,-1.88,1167.28,1629.09
0.88,3.26,0.86,-1.7,-0.37,-3.95,1053.44,1375.02
-3.66,3.33,3.92,-1.38,-0.15,-3.28,1211.26,1475.6
-2.42,9.17,4.1,-0.44,-0.51,-0.47,796.82,955.2
-4.18,8.65,3.93,0.05,0.21,0.89,600.87,701.36
-3.81,8.06,4.66,0.48,1.38,2.22,435.73,513.8
-1.5,6.56,2.66,0.96,0.57,3.67,427.39,520.86
6.15,6.05,-0.1,0.9,0.78,3.94,505.77,636.57
10.4,3.35,-1.02,0.58,-0.09,3.59,737.36,1028.51
12.05,1.16,-0.75,0.21,-0.01,2.61,535.69,628.32
12.21,-0.13,-0.79,0.07,-0.52,1.77,394.09,436.05
12.52,-0.63,-0.6,-0.11,0.09,0.93,303.73,339.15
11.9,-0.73,1.04,-0.04,0.56,-0.21,0.0,0.0
10.99,-0.35,-0.9,0.05,-0.24,0.14,0.0,0.0
9.48,-0.87,1.06,-0.12,0.23,-0.05,0.0,0.0
10.38,-0.65,0.05,-0.08,0.09,0.01,0.0,0.0
9.94,-0.68,0.78,-0.13,0.08,-0.04,0.0,0.0
10.17,-0.61,0.37,-0.07,0.05,-0.03,0.0,0.0
10.1,-0.4,0.54,-0.1,0.19,0.01,0.0,0.0
10.05,-0.52,0.53,-0.06,0.1,-0.0,0.0,329.86
9.76,-0.44,0.49,-0.13,0.17,0.02,0.0,378.51
10.13,-0.74,1.38,-0.09,0.0,-0.02,0.0,366.62
12.73,-0.6,0.46,-0.04,-0.25,-0.79,536.58,763.29
13.39,-0.12,0.17,-0.12,0.09,-2.05,584.31,739.93
10.14,2.5,-1.26,-0.57,-0.31,-3.01,461.61,646.42
7.84,4.61,-0.06,-0.96,-0.37,-2.92,443.37,601.09
6.58,6.41,-0.1,-1.34,-0.73,-3.81,618.08,851.96
0.81,5.15,2.04,-1.31,-0.81,-3.52,875.58,1154.52
-5.92,4.15,4.6,-1.35,-0.7,-2.94,1103.65,1483.37
-2.74,6.7,3.98,0.67,0.47,2.15,576.7,677.79
-1.3,6.75,3.4,0.78,0.33,3.14,446.85,530.02
2.79,7.16,1.93,0.68,0.54,3.36,515.22,678.89
7.92,6.15,1.52,0.63,0.33,3.09,801.0,1074.17
9.98,4.64,0.67,0.43,0.22,2.53,574.85,775.68
11.07,2.69,-0.09,0.11,-0.41,1.68,453.1,502.08
9.3,1.77,0.93,-0.04,-0.04,1.39,348.03,385.09
11.3,0.94,0.42,0.2,-0.04,1.29,0.0,0.0
14.26,0.12,0.7,0.0,-0.15,0.17,0.0,0.0
7.23,0.85,1.22,-0.02,-0.07,0.11,0.0,0.0
9.41,0.39,0.6,-0.1,0.36,-0.06,0.0,324.48
10.37,0.54,0.53,-0.11,0.12,0.0,0.0,314.96
10.14,0.67,0.53,-0.1,0.03,-0.01,0.0,0.0
10.11,0.51,0.85,-0.09,0.06,-0.0,0.0,0.0
10.17,0.64,0.48,-0.05,0.17,-0.02,0.0,0.0
10.27,0.6,0.83,-0.04,-0.05,0.01,0.0,0.0
10.02,0.74,0.82,-0.07,0.03,-0.0,0.0,317.42
10.19,0.77,0.74,-0.14,0.07,0.02,0.0,0.0
9.99,0.74,0.76,-0.12,0.11,0.01,0.0,0.0
10.12,0.59,0.85,-0.11,0.04,0.03,0.0,0.0
9.86,0.84,0.8,-0.07,0.1,0.0,0.0,0.0
10.66,0.76,0.99,-0.05,0.03,-0.08,0.0,324.15
10.41,1.19,0.7,-0.05,-0.0,-0.19,0.0,368.66
12.0,1.27,0.69,-0.12,-0.18,-0.67,541.69,850.4
11.65,1.58,0.63,-0.22,0.07,-1.57,603.85,802.71
9.47,3.41,0.29,-0.66,-0.24,-2.37,497.73,659.12
8.25,4.5,1.14,-1.04,-0.38,-2.64,460.39,560.46
9.35,6.3,0.85,-1.13,-0.59,-3.59,982.5,1331.74
1.21,5.17,1.57,-1.53,-0.88,-3.57,1029.8,1356.81
-0.04,4.0,4.83,-1.47,-0.95,-3.59,812.89,1059.92
-5.5,7.16,4.34,-0.58,-0.39,-1.46,1308.55,1670.46
-7.94,6.95,1.02,1.0,1.92,1.96,836.92,905.04
-4.26,6.11,-0.29,0.91,0.61,3.27,616.81,656.91
0.79,6.64,-0.73,0.92,0.13,3.81,450.64,497.33
5.03,5.0,-0.86,0.79,0.23,4.05,319.24,369.76
10.02,2.24,-1.95,0.29,0.61,3.55,330.09,405.94
14.45,1.0,-2.89,-0.22,0.54,2.14,356.67,445.21
12.28,1.72,-1.85,-0.49,0.32,0.75,321.53,415.49
11.11,1.5,0.71,-0.29,0.13,0.32,0.0,371.97
10.25,1.1,-1.92,-0.21,0.12,0.64,478.93,661.33
10.31,-0.19,0.39,-0.28,0.41,-0.02,0.0,310.16
11.07,0.4,-0.88,-0.18,-0.06,0.09,0.0,0.0
10.07,0.31,-0.35,-0.08,-0.06,0.02,0.0,0.0
10.57,0.5,-0.38,-0.1,0.06,-0.0,0.0,0.0
10.11,0.52,-0.2,-0.09,0.07,-0.0,0.0,0.0
10.02,0.65,-0.07,-0.09,0.14,-0.01,0.0,0.0
10.3,0.64,-0.26,-0.11,0.14,-0.01,0.0,0.0
10.3,0.76,-0.31,-0.1,0.06,0.01,0.0,0.0
10.23,0.63,-0.16,-0.05,-0.04,0.06,0.0,307.64
9.9,0.54,0.1,-0.1,0.18,0.06,0.0,0.0
10.85,0.4,-0.06,-0.05,0.04,-0.01,0.0,513.0
11.12,0.36,0.34,0.04,-0.3,-0.37,370.12,522.56
12.1,1.19,-1.19,-0.06,-0.31,-1.0,447.6,582.16
12.7,2.46,-1.16,-0.5,-0.18,-1.83,485.1,594.38
12.5,3.97,-2.94,-1.13,-0.44,-3.07,784.6,1170.79
7.57,3.76,-0.85,-1.47,-0.13,-3.42,1050.66,1391.12
-0.2,3.51,1.52,-1.8,0.22,-3.35,925.13,1231.08
0.54,7.13,3.95,-1.41,-0.16,-2.77,581.65,747.64
-2.34,6.77,4.39,-1.22,-0.83,-2.32,1341.88,1688.65
-4.17,7.48,5.33,1.19,1.57,1.66,767.26,849.45
-3.29,7.38,2.46,1.49,1.32,2.47,562.08,641.81
-0.16,6.06,0.02,1.53,0.8,3.55,424.94,473.76
5.6,5.07,-1.82,0.94,0.55,3.88,461.4,576.03
10.0,2.27,-1.94,0.32,0.06,3.66,377.62,459.11
13.78,0.17,-0.89,0.14,0.33,2.58,367.56,426.92
11.16,-0.1,-1.57,0.0,0.37,1.45,0.0,304.67
11.95,-0.33,-0.74,-0.28,0.63,0.72,0.0,0.0
11.51,-0.46,-1.5,0.09,0.03,0.05,0.0,0.0
11.73,-0.67,-1.06,-0.27,0.01,-0.1,0.0,0.0
10.08,-0.41,-0.3,-0.17,-0.08,-0.03,0.0,0.0
10.21,-0.47,0.07,-0.16,0.15,-0.06,0.0,0.0
10.4,-0.4,-0.08,-0.11,0.06,-0.03,0.0,0.0
10.16,-0.3,0.08,-0.05,0.02,-0.02,0.0,0.0
10.22,-0.37,0.19,-0.03,0.08,-0.0,0.0,0.0
10.18,-0.3,0.17,-0.06,0.06,-0.0,0.0,0.0
10.08,-0.26,0.25,-0.07,0.03,-0.0,0.0,0.0
10.14,-0.24,0.12,-0.07,0.03,0.02,0.0,0.0
10.16,-0.25,-0.06,-0.07,0.04,0.02,0.0,0.0
10.24,-0.31,0.19,-0.1,0.05,0.01,0.0,0.0
10.73,-0.2,0.04,-0.09,0.02,-0.05,0.0,402.76
12.74,0.05,0.1,-0.0,-0.55,-0.53,336.21,542.44
12.41,0.69,-0.97,-0.12,-0.08,-1.46,437.43,622.32
11.07,1.97,-1.08,-0.61,-0.32,-1.91,443.16,617.45
11.41,3.18,-1.56,-1.02,-0.21,-2.58,516.12,747.25
8.01,3.25,-0.0,-1.22,-0.05,-3.23,644.67,936.82
3.37,5.86,-0.12,-1.32,-0.36,-3.2,594.46,782.05
1.21,6.68,1.91,-2.07,-0.78,-3.36,1039.83,1415.79
-6.36,8.04,6.01,0.4,0.69,0.63,594.15,686.75
-3.01,7.29,4.51,1.07,0.99,1.96,426.7,480.85
-0.68,6.85,2.49,1.49,0.37,3.0,322.16,358.62
4.01,6.55,-0.4,1.28,0.66,3.2,301.96,358.61
6.78,4.87,-0.98,0.79,0.32,3.16,407.7,517.73
10.09,3.28,-1.31,0.55,0.18,2.9,351.16,428.99
11.96,1.38,-1.49,0.37,0.17,2.22,0.0,300.53
12.3,0.28,-2.2,0.13,0.18,1.48,0.0,309.94
11.98,-0.48,-1.29,-0.01,0.45,0.89,317.69,475.65
12.15,-0.99,-0.62,0.04,0.33,0.24,0.0,326.36
10.01,-0.82,-0.52,0.0,0.21,0.13,0.0,403.43
10.09,-1.15,-0.18,-0.13,0.14,-0.04,0.0,0.0
10.09,-0.91,-0.24,-0.08,-0.02,0.08,0.0,0.0
10.39,-1.13,-0.36,-0.1,-0.1,0.04,0.0,0.0
9.85,-1.1,-0.34,-0.17,-0.05,0.1,0.0,0.0
10.3,-1.18,-0.62,-0.17,-0.03,0.06,0.0,0.0
9.87,-1.23,-0.52,-0.16,-0.03,0.1,0.0,0.0
10.13,-1.29,-0.36,-0.12,-0.2,0.14,0.0,0.0
10.41,-1.15,-1.44,-0.16,-0.28,0.21,0.0,324.89
9.92,-1.6,-1.37,-0.2,-0.24,0.27,0.0,0.0
10.02,-1.94,-1.92,-0.14,-0.21,0.17,0.0,0.0
9.95,-2.22,-1.78,-0.06,-0.11,0.05,0.0,0.0
10.04,-2.01,-1.88,-0.03,-0.05,0.0,0.0,0.0
10.28,-1.94,-1.97,-0.08,-0.09,0.03,0.0,0.0
11.05,-1.95,-1.94,-0.08,-0.35,-0.19,0.0,425.06
11.02,-1.42,-2.49,-0.19,-0.28,-0.8,459.56,694.85
12.45,-0.51,-3.15,-0.34,-0.35,-1.45,460.68,602.43
11.03,0.97,-4.08,-0.71,-0.1,-2.13,472.92,644.67
10.84,2.17,-3.51,-1.29,-0.05,-2.76,841.06,1264.83
8.56,2.59,-2.57,-1.24,0.26,-3.16,935.39,1184.26
3.86,5.23,-1.88,-1.05,0.04,-2.78,1081.2,1442.45
-0.47,9.71,1.05,0.55,0.56,1.05,737.86,810.63
-0.22,7.68,0.57,1.06,0.45,2.23,574.34,619.45
3.83,5.13,-2.19,1.45,0.36,3.5,442.46,536.27
9.07,2.8,-3.89,1.25,0.02,3.77,417.06,521.65
12.6,0.11,-4.05,0.8,0.55,2.87,438.8,590.45
11.52,-1.15,-3.91,0.41,0.27,1.93,0.0,336.27
12.0,-2.62,-3.31,-0.07,0.29,1.22,0.0,357.3
11.47,-2.3,-2.86,-0.0,0.22,-0.26,0.0,0.0
10.61,-2.24,-2.74,-0.17,0.13,0.07,0.0,0.0
9.69,-2.3,-2.21,-0.18,0.28,-0.1,0.0,0.0
10.23,-2.21,-2.17,-0.21,0.27,-0.03,0.0,0.0
10.02,-2.04,-1.89,-0.17,0.23,-0.07,0.0,0.0
9.94,-2.1,-1.82,-0.1,0.11,-0.01,0.0,0.0
9.67,-1.86,-1.57,-0.08,0.08,-0.0,0.0,0.0
9.94,-1.98,-1.69,-0.09,0.08,-0.01,0.0,0.0
9.87,-1.78,-1.72,-0.09,0.08,-0.03,0.0,0.0
10.11,-1.81,-1.82,-0.12,0.15,-0.04,0.0,0.0
10.03,-1.75,-1.6,-0.09,0.07,-0.02,0.0,0.0
10.07,-1.65,-1.69,-0.08,0.02,-0.02,0.0,0.0
11.19,-1.65,-1.47,-0.08,0.06,-0.15,355.62,627.55
12.39,-1.25,-1.64,-0.1,-0.26,-0.98,0.0,405.33
11.18,-0.2,-1.75,-0.31,0.21,-1.57,338.64,441.45
11.09,1.47,-2.87,-0.71,-0.4,-2.16,335.14,407.12
10.5,3.19,-2.24,-1.01,-0.43,-2.51,446.52,612.13
6.72,5.35,-1.43,-1.01,-0.34,-2.88,522.55,743.78
4.34,6.46,-1.29,-1.45,-0.76,-2.56,748.41,1105.74
2.14,7.79,0.91,-1.04,-0.34,-1.82,723.47,1033.78
-0.39,6.72,2.83,-1.08,-0.28,-1.79,983.29,1334.78
-1.97,8.98,3.02,-0.47,-0.13,-0.73,976.02,1276.95
-2.76,9.22,3.24,-0.24,0.2,-0.16,884.28,1166.89
-2.09,9.47,2.86,-0.03,0.5,0.15,831.28,1021.23
-2.7,8.7,3.26,0.11,0.43,0.42,516.6,553.45
-2.12,7.61,3.34,1.17,1.65,2.22,380.61,442.51
0.03,6.4,1.77,1.53,0.36,3.27,381.89,512.16
5.36,6.22,-1.39,1.29,0.68,3.5,366.33,493.1
10.64,3.95,-3.26,0.54,0.36,3.22,463.85,645.73
13.49,1.42,-1.87,-0.05,0.71,1.71,434.55,612.14
9.51,1.15,-0.23,0.15,0.07,1.24,0.0,346.07
9.62,0.26,-0.96,0.28,0.09,1.3,0.0,0.0
11.75,-1.19,-1.34,0.01,0.03,1.22,0.0,0.0
13.17,-1.54,-0.98,-0.27,0.3,-0.01,0.0,0.0
8.4,-0.67,-0.23,-0.07,-0.09,0.07,0.0,0.0
10.43,-1.28,-0.45,-0.19,0.35,-0.04,0.0,0.0
9.97,-1.07,-0.5,-0.05,0.0,0.02,0.0,0.0
10.15,-0.98,-0.2,-0.07,0.11,-0.01,0.0,0.0
10.35,-1.08,-0.2,-0.08,0.06,0.0,0.0,0.0
10.16,-1.07,-0.25,-0.06,0.09,-0.0,0.0,0.0
10.28,-1.1,-0.11,-0.07,0.03,0.02,0.0,0.0
10.77,-1.09,0.24,-0.05,0.01,-0.24,314.01,461.78
11.7,-0.31,-0.97,0.01,-0.16,-0.92,413.31,736.09
11.96,0.29,-1.08,-0.29,-0.11,-1.28,332.6,483.6
13.56,1.45,-1.75,-0.53,-0.4,-2.59,452.21,599.13
7.13,3.35,-0.96,-0.69,-0.75,-2.72,453.76,659.13
6.3,6.3,-1.7,-0.87,-1.37,-2.37,594.58,844.71
4.6,7.1,-0.84,-1.63,-0.83,-2.96,798.93,1092.35
3.29,9.04,-0.66,-1.37,-0.66,-2.44,1085.48,1428.42
-1.87,9.0,3.98,-0.04,0.28,0.04,826.55,1005.52
-2.89,8.28,3.9,0.39,0.56,0.7,578.12,622.33
-1.57,8.25,2.8,0.88,1.09,1.51,426.67,497.05
-0.39,7.18,1.16,1.14,0.54,2.6,349.84,425.98
3.03,6.97,0.09,1.05,0.58,3.07,0.0,345.63
6.86,6.1,-1.05,0.78,0.4,3.19,334.67,492.7
12.11,3.66,-1.82,0.28,0.57,2.47,422.28,587.8
11.77,2.2,-1.22,0.07,0.16,1.56,0.0,0.0
10.95,1.54,-0.36,-0.07,0.03,1.21,0.0,0.0
10.01,0.72,-0.51,0.08,0.23,0.94,0.0,0.0
11.61,-0.11,-1.24,-0.11,-0.02,0.78,0.0,0.0
11.96,-0.49,0.37,-0.06,0.12,-0.05,0.0,0.0
9.21,0.09,-0.23,-0.09,0.1,-0.07,0.0,0.0
10.47,-0.27,0.21,-0.08,-0.05,0.1,0.0,0.0
10.07,-0.34,-0.55,-0.1,-0.15,0.07,0.0,0.0
10.39,-0.23,-0.07,-0.06,0.02,0.02,0.0,0.0
10.35,-0.17,-0.45,-0.03,0.13,0.05,0.0,0.0
10.49,-0.18,-0.29,-0.1,0.09,0.03,0.0,0.0
10.48,-0.24,-0.02,-0.11,-0.02,-0.09,0.0,0.0
10.24,-0.11,-0.04,-0.08,-0.03,-0.06,0.0,0.0
10.33,0.19,-0.29,-0.05,-0.04,-0.31,0.0,326.14
12.03,0.44,-0.8,-0.15,-0.41,-0.52,404.44,583.19
12.16,0.98,-0.93,-0.32,-0.07,-1.3,383.74,516.24
11.0,2.63,-1.68,-0.52,-0.4,-1.86,420.2,683.37
10.86,3.73,-1.73,-0.99,-0.64,-2.51,479.45,685.8
6.68,4.83,-0.71,-1.15,-0.62,-2.8,484.52,689.52
3.71,6.14,-0.11,-1.17,-0.57,-2.43,641.74,918.84
2.93,8.6,0.23,-1.23,-0.34,-2.24,802.92,1121.43
-1.9,7.09,3.41,-1.12,-0.21,-1.81,530.48,718.79
-1.63,8.7,3.6,-0.63,-0.26,-0.78,849.25,1221.96
-2.5,8.69,4.12,-0.42,0.2,-0.67,1027.41,1301.49
-2.8,8.19,4.12,-0.11,0.03,0.09,737.46,897.33
-3.05,8.14,4.48,0.36,0.54,1.03,538.27,585.02
-2.4,7.31,3.92,1.02,1.35,2.11,423.12,466.51
0.84,7.59,2.24,1.34,0.52,2.85,332.51,402.48
4.26,6.18,-0.13,1.16,0.96,3.04,0.0,309.89
7.47,4.73,-0.74,0.65,0.23,3.05,0.0,390.06
10.78,3.33,-1.04,0.38,0.67,2.33,0.0,317.84
11.23,2.29,-0.74,0.18,0.19,1.42,0.0,0.0
10.22,1.66,-0.51,0.25,0.02,1.13,0.0,305.72
10.64,0.12,-0.89,0.01,-0.29,1.07,0.0,0.0
11.56,-0.7,-0.21,-0.06,0.1,0.71,0.0,0.0
11.83,-0.34,-0.65,-0.04,-0.05,0.02,0.0,337.24
9.47,-0.15,-0.22,-0.06,0.11,-0.1,0.0,0.0
10.28,-0.4,-0.3,-0.09,0.17,-0.03,0.0,0.0
10.07,-0.22,0.01,-0.08,0.23,-0.08,0.0,0.0
9.83,-0.29,0.31,-0.03,0.07,0.0,0.0,0.0
10.07,-0.51,0.27,-0.06,0.13,0.02,0.0,0.0
10.32,-0.22,0.29,-0.05,0.15,-0.0,0.0,0.0
10.74,-0.16,0.49,-0.07,-0.05,-0.0,0.0,0.0
11.64,-0.17,0.32,-0.01,-0.34,-0.31,0.0,375.89
12.52,0.15,-0.5,-0.27,0.2,-1.17,374.29,526.94
13.15,1.39,-1.19,-0.6,0.07,-2.45,358.73,486.37
8.16,2.09,-0.5,-1.01,0.67,-3.02,663.32,945.88
7.11,5.73,-0.88,-1.23,-0.46,-3.16,1009.75,1341.31
2.74,3.93,2.51,-1.89,-0.76,-3.4,1156.57,1525.86
-3.75,7.63,6.84,0.45,0.88,0.49,804.14,847.45
-1.74,8.29,4.17,1.13,1.07,1.62,522.85,579.84
0.53,7.61,1.71,1.41,0.63,2.26,408.16,443.73
3.14,7.36,0.01,1.14,0.97,2.7,313.45,362.7
6.66,6.4,-1.2,0.58,0.47,3.08,0.0,369.34
11.26,4.27,-1.49,0.12,0.41,2.64,333.13,450.25
10.03,1.93,-0.17,-0.18,0.17,1.81,0.0,305.23
11.04,0.85,-0.33,-0.32,0.19,1.28,0.0,0.0
10.59,0.28,0.5,-0.03,-0.3,1.12,0.0,320.47
11.38,-0.38,-0.19,0.12,0.15,0.74,0.0,360.35
10.69,-0.47,-0.11,-0.02,0.36,0.29,0.0,374.4
10.53,-0.6,0.23,-0.12,0.08,-0.12,0.0,0.0
10.24,-0.48,0.39,-0.11,0.03,-0.03,0.0,0.0
9.91,-0.58,0.45,-0.13,0.12,-0.1,0.0,0.0
10.08,-0.49,0.4,-0.08,0.06,-0.04,0.0,0.0
10.13,-0.33,0.34,-0.09,0.04,0.01,0.0,0.0
10.18,-0.47,0.41,-0.08,0.05,0.0,0.0,0.0
10.22,-0.38,0.24,-0.1,0.0,0.0,0.0,0.0
10.36,-0.37,0.35,-0.11,-0.01,-0.02,0.0,370.82
11.19,-0.39,0.62,-0.1,-0.16,-0.39,0.0,304.19
11.82,0.28,-0.49,-0.21,0.3,-1.03,0.0,367.84
11.86,1.55,-0.5,-0.38,0.07,-1.61,0.0,0.0
12.21,2.81,-1.28,-0.7,-0.34,-2.38,495.18,704.44
10.71,3.94,-1.56,-1.19,-0.55,-3.06,867.09,1174.92
4.61,4.56,1.16,-1.46,-0.54,-3.01,1064.79,1454.2
-0.65,9.4,4.75,-0.39,-0.43,-0.38,1069.14,1383.13
-2.52,8.17,5.24,0.21,-0.09,0.65,909.59,1098.89
-4.78,8.14,5.32,0.57,0.92,0.8,586.09,647.9
0.51,8.15,3.55,1.19,1.34,1.37,489.38,601.9
-0.18,8.09,1.25,1.53,0.89,2.24,302.08,347.69
2.57,7.54,-0.64,1.05,1.05,2.75,326.96,393.93
5.65,6.19,-1.22,0.64,0.14,3.22,346.47,499.16
10.24,3.87,-1.36,0.17,0.33,2.95,354.87,520.78
10.64,1.09,-0.06,-0.05,0.42,2.33,0.0,351.57
11.33,0.04,-0.44,-0.15,0.35,1.63,0.0,0.0
11.85,-0.67,0.16,-0.01,0.05,1.08,0.0,0.0
11.83,-0.99,0.14,0.02,0.19,0.18,0.0,303.46
9.45,-0.42,0.44,-0.1,0.21,-0.06,0.0,0.0
10.19,-0.58,0.51,-0.07,0.06,-0.05,0.0,0.0
9.94,-0.53,0.34,-0.11,0.04,-0.02,0.0,0.0
9.95,-0.55,0.4,-0.12,0.04,-0.01,0.0,0.0
10.11,-0.54,0.38,-0.1,0.05,-0.0,0.0,0.0
10.16,-0.5,0.43,-0.06,-0.03,0.01,0.0,0.0
10.07,-0.45,0.47,-0.09,-0.03,-0.0,0.0,0.0
10.98,-0.59,0.33,-0.11,-0.16,-0.14,0.0,0.0
10.91,-0.17,0.07,-0.13,-0.08,-0.46,0.0,0.0
11.89,0.56,0.13,-0.21,-0.03,-1.03,301.81,401.51
11.18,1.43,-0.25,-0.31,0.19,-1.44,426.08,581.24
12.15,2.62,-1.19,-0.63,-0.34,-2.03,320.22,384.25
10.2,4.35,-0.37,-0.95,-0.42,-2.56,454.27,668.8
7.16,5.81,0.09,-1.03,-0.7,-2.96,634.23,893.09
3.2,5.92,1.81,-1.37,-0.58,-2.88,750.74,1035.98
0.15,6.64,2.51,-1.28,-0.29,-2.29,675.95,848.09
-1.12,5.98,3.91,-1.26,-0.37,-1.98,1016.71,1327.97
-2.02,8.02,5.75,-0.56,-0.2,-0.77,1234.96,1532.05
-2.02,7.09,5.2,1.12,1.14,1.91,878.38,933.93
0.13,7.66,2.76,1.6,0.94,2.53,571.07,607.28
3.13,7.57,0.08,1.16,0.97,2.81,381.77,426.06
6.22,6.22,-0.86,0.72,-0.16,2.94,315.76,378.42
9.25,4.78,-0.97,0.28,0.22,2.42,318.19,407.5
11.57,3.37,-0.4,0.14,0.33,1.67,0.0,305.19
10.43,2.82,-0.22,0.05,0.09,1.11,0.0,0.0
9.57,1.98,-0.13,0.07,0.2,0.96,0.0,0.0
10.77,0.92,-0.07,0.01,0.07,1.01,0.0,0.0
12.01,0.49,-0.19,-0.15,0.38,0.4,0.0,0.0
10.87,0.49,0.57,-0.12,0.11,0.01,0.0,0.0
10.13,0.43,0.1,-0.03,0.03,0.03,0.0,0.0
10.09,0.2,0.49,-0.11,0.08,0.02,0.0,0.0
10.02,0.3,0.25,-0.06,0.11,-0.01,0.0,0.0
10.13,0.46,0.48,-0.07,0.04,0.04,0.0,0.0
10.14,0.29,0.36,-0.06,0.08,-0.0,0.0,0.0
10.72,0.24,0.53,-0.07,0.01,-0.08,0.0,0.0
10.46,0.59,0.59,0.01,-0.05,-0.24,335.28,520.38
11.22,0.89,0.11,-0.03,-0.15,-0.65,0.0,367.67
11.06,1.66,-0.58,-0.37,0.29,-1.27,0.0,0.0
10.5,2.76,-0.11,-0.52,-0.18,-1.55,0.0,349.88
10.12,4.19,-0.57,-0.7,-0.29,-1.95,400.63,516.3
9.41,5.42,-0.4,-1.04,-0.75,-2.33,477.65,640.12
6.04,6.36,0.26,-1.26,-0.61,-2.73,594.8,820.09
3.21,8.37,0.84,-1.41,-0.7,-2.67,832.94,1165.95
-0.91,5.69,3.35,-1.5,-0.32,-2.44,885.92,1249.62
-1.08,7.95,3.98,-0.9,-0.2,-1.48,1036.55,1400.86
-2.66,8.03,4.81,0.69,1.53,1.28,680.09,720.51
-1.41,8.17,3.58,1.0,1.44,2.0,442.64,477.42
0.31,7.39,2.45,1.23,0.86,2.6,338.91,374.54
4.29,7.62,-0.16,1.06,0.82,2.89,306.3,456.91
7.82,6.0,-0.71,0.56,0.09,2.92,344.95,493.95
10.6,3.84,-0.38,0.22,0.3,2.33,325.99,418.9
10.31,2.61,-0.05,-0.02,0.33,1.68,0.0,0.0
9.96,1.63,0.96,0.05,0.1,1.47,0.0,0.0
10.63,0.47,0.38,0.19,0.05,1.49,0.0,0.0
14.44,-0.5,-0.32,-0.06,0.37,0.42,0.0,0.0
9.21,0.09,1.65,-0.12,0.37,-0.22,0.0,0.0
10.36,-0.11,0.45,-0.03,-0.1,0.11,0.0,0.0
9.71,-0.15,1.29,-0.16,0.19,-0.07,0.0,0.0
9.99,-0.1,1.18,-0.05,0.01,-0.0,0.0,0.0
10.0,0.08,1.07,-0.08,0.02,-0.01,0.0,0.0
10.05,0.05,1.07,-0.07,-0.01,0.04,0.0,0.0
10.13,-0.01,1.04,-0.06,-0.02,-0.0,0.0,0.0
10.14,0.07,0.96,-0.07,0.01,-0.01,0.0,0.0
10.85,-0.03,1.04,-0.09,-0.05,-0.14,0.0,339.81
11.64,0.59,0.56,-0.09,-0.13,-0.46,0.0,411.76
11.67,0.87,0.44,-0.17,-0.04,-1.07,403.86,580.6
10.63,2.16,-0.02,-0.46,0.18,-1.65,0.0,0.0
9.17,3.3,0.51,-0.58,-0.34,-1.77,375.89,520.49
8.78,4.59,0.79,-0.71,-0.25,-2.05,360.38,490.96
7.75,6.63,-0.02,-0.95,-0.77,-2.42,602.51,854.33
5.39,5.87,1.07,-1.62,-0.14,-3.3,717.71,966.35
0.51,6.79,4.48,-1.38,-0.6,-2.15,597.91,809.84
1.37,8.01,5.44,-1.04,-0.41,-1.95,862.89,1196.67
0.04,7.52,4.85,-0.79,-0.84,-1.46,1193.68,1585.81
-1.48,7.43,5.18,1.04,1.47,1.83,748.19,787.35
0.25,7.32,3.73,1.52,1.04,2.43,520.39,552.05
1.88,7.29,1.51,1.52,0.53,2.81,355.36,417.26
4.58,6.78,-0.64,0.88,0.5,2.98,0.0,310.27
9.5,5.65,-1.7,0.17,0.62,2.61,548.22,739.37
9.85,3.59,1.1,-0.12,0.27,1.9,328.06,379.07
10.11,2.65,0.84,-0.04,0.26,1.47,0.0,325.05
10.29,1.91,0.4,-0.1,0.19,1.23,0.0,0.0
12.67,1.05,0.99,-0.03,-0.2,0.61,0.0,0.0
11.29,0.99,0.87,-0.13,0.15,-0.12,0.0,0.0
9.71,1.13,1.17,-0.06,-0.34,0.14,0.0,0.0
9.84,1.0,1.15,-0.07,0.23,-0.02,0.0,0.0
10.12,0.97,1.18,-0.03,0.02,0.04,0.0,0.0
9.89,1.12,1.17,-0.05,0.05,0.01,0.0,0.0
9.96,0.94,1.16,-0.05,0.02,0.01,0.0,0.0
10.24,1.07,1.1,-0.05,0.02,-0.04,0.0,0.0
9.96,1.13,1.28,-0.07,0.16,-0.13,0.0,354.5
10.47,1.28,1.35,-0.05,0.04,-0.2,0.0,452.91
10.85,1.67,1.12,-0.07,-0.05,-0.55,0.0,316.34
11.32,2.34,0.82,-0.15,-0.16,-0.9,388.08,561.58
10.74,3.17,0.52,-0.29,0.0,-1.36,437.43,660.09
10.2,4.15,0.03,-0.54,-0.39,-1.82,0.0,346.71
8.05,5.72,0.38,-0.83,-0.48,-1.96,425.17,656.6
6.85,6.25,1.52,-1.0,-0.49,-2.48,458.1,574.89
3.39,7.72,2.07,-1.31,-0.97,-2.45,624.92,889.03
2.99,8.13,2.21,-1.56,-0.95,-2.78,590.18,815.36
-0.05,6.72,5.03,-1.39,-0.42,-2.5,673.93,822.87
-1.52,7.29,5.81,-0.69,-0.94,-1.08,1026.73,1394.19
-0.64,8.03,5.33,-0.45,-0.7,-0.46,1123.75,1426.98
-2.38,7.18,6.25,1.07,1.74,1.58,735.83,788.23
-1.89,7.13,4.29,1.48,1.02,2.3,433.87,496.61
0.08,7.74,2.0,1.56,0.99,2.61,595.21,911.48
2.81,7.12,-0.66,1.08,0.94,2.98,456.7,527.27
6.6,5.54,-1.06,0.46,0.53,3.25,409.1,497.89
10.96,3.55,-0.33,0.03,0.52,2.8,307.13,349.63
11.25,1.96,0.04,-0.08,0.52,1.76,319.5,354.04
10.7,0.93,0.49,-0.24,0.08,1.26,0.0,0.0
12.35,0.44,0.32,-0.18,0.38,0.48,0.0,0.0
10.47,0.56,0.74,-0.14,0.24,-0.12,0.0,0.0
9.61,0.64,0.9,-0.04,0.02,0.04,0.0,0.0
10.08,0.58,1.05,-0.1,0.03,0.0,0.0,0.0
9.97,0.7,1.09,-0.04,0.1,-0.02,0.0,0.0
10.0,0.87,1.18,-0.08,0.02,-0.01,0.0,0.0
10.17,0.79,1.1,-0.07,0.05,0.02,0.0,0.0
10.29,0.73,1.23,-0.07,0.01,-0.04,0.0,0.0
11.3,0.83,1.35,-0.02,0.14,-0.39,0.0,377.46
11.96,1.65,0.35,-0.05,-0.25,-1.0,373.13,538.94
10.6,2.46,0.38,-0.38,0.12,-1.45,507.74,827.99
9.32,3.53,1.0,-0.52,-0.18,-1.8,469.29,618.25
8.86,5.05,0.22,-0.76,-0.24,-2.1,445.85,628.7
7.01,5.95,1.24,-0.98,-0.69,-2.32,395.33,501.66
5.28,6.71,1.45,-1.24,-0.99,-2.42,538.56,830.65
2.61,7.81,2.57,-1.31,-0.71,-2.15,478.02,660.4
0.06,7.17,4.23,-1.19,-0.57,-1.59,565.41,780.77
0.31,6.27,4.87,-1.2,-0.33,-1.76,958.75,1395.08
-0.58,7.15,5.73,-0.67,-0.22,-0.91,1009.2,1353.28
-1.58,7.11,6.63,-0.35,-0.2,-0.38,1104.11,1414.24
-2.5,7.03,5.54,1.1,1.64,1.79,882.99,922.94
-0.29,7.04,3.82,1.53,1.62,2.24,479.74,541.7
1.33,8.44,0.34,1.39,1.01,2.49,452.54,525.99
2.72,7.2,-0.28,0.5,1.15,2.99,426.99,476.02
7.91,6.12,-0.6,0.08,-0.23,3.13,325.77,378.99
12.28,4.05,0.64,-0.17,-0.05,2.26,447.05,586.32
9.81,2.96,1.28,-0.19,0.32,1.36,325.39,414.35
9.6,2.28,1.2,-0.08,0.64,0.97,0.0,0.0
10.08,1.46,0.95,0.01,-0.26,1.12,0.0,0.0
12.44,0.62,0.51,-0.05,0.27,0.7,0.0,0.0
11.02,0.81,1.07,-0.12,0.29,-0.17,0.0,0.0
9.43,1.03,0.93,-0.09,-0.17,0.1,0.0,0.0
10.27,0.66,1.32,-0.14,0.12,0.0,0.0,0.0
9.92,0.79,1.09,-0.06,0.01,0.04,0.0,0.0
9.98,0.7,1.28,-0.08,0.09,0.01,0.0,0.0
10.01,0.87,1.08,-0.05,0.06,0.02,0.0,0.0
9.86,0.7,1.21,-0.08,0.04,0.01,0.0,0.0
9.99,0.69,1.11,-0.09,0.04,0.0,0.0,0.0
10.16,0.73,1.11,-0.09,0.0,-0.03,0.0,0.0
11.07,0.83,1.51,-0.06,0.13,-0.27,347.23,549.98
11.48,1.31,0.84,0.01,-0.26,-0.83,356.17,486.01
11.49,2.12,0.34,-0.32,0.16,-1.49,358.32,571.26
9.01,3.43,0.94,-0.5,-0.26,-1.91,306.1,386.53
8.59,4.8,0.73,-0.77,-0.26,-1.98,376.98,575.63
8.1,6.44,0.32,-0.98,-0.62,-2.27,467.73,671.37
5.29,6.11,0.89,-1.34,-0.87,-2.52,507.97,670.44
4.02,7.15,1.82,-1.75,-0.7,-2.4,449.71,600.84
0.98,8.11,3.91,-1.27,-0.54,-1.76,582.55,793.45
1.86,7.67,4.13,-1.56,-0.68,-2.33,706.13,1101.0
-3.98,6.87,7.17,-0.54,-0.05,-0.52,950.59,1270.52
-1.69,7.21,6.08,-0.26,0.18,-0.22,1130.27,1428.15
-2.42,6.83,6.05,1.26,1.98,1.76,719.84,783.53
-1.14,7.46,2.99,1.38,1.16,2.39,436.8,516.57
0.29,7.92,1.21,1.05,0.72,2.79,451.68,530.15
3.5,7.39,0.32,0.38,0.7,3.04,408.36,472.68
7.91,6.07,0.62,-0.01,0.0,2.92,362.0,431.16
9.73,4.04,1.37,-0.09,0.53,2.05,350.6,394.83
8.94,2.71,1.37,-0.09,0.02,1.54,0.0,335.22
10.45,2.23,0.68,-0.09,-0.23,1.17,0.0,0.0
10.3,1.51,1.49,0.01,-0.32,0.95,0.0,0.0
12.31,1.08,0.22,-0.02,-0.12,0.34,0.0,0.0
9.92,1.17,1.07,-0.11,0.4,-0.17,0.0,0.0
10.08,1.23,0.39,-0.08,-0.11,0.13,0.0,0.0
10.26,0.91,1.09,-0.11,0.11,0.0,0.0,0.0
10.02,1.18,0.65,-0.04,-0.0,0.0,0.0,0.0
10.03,1.19,0.94,-0.1,0.04,0.01,0.0,0.0
10.17,1.27,0.8,-0.06,-0.0,0.02,0.0,0.0
10.63,1.22,1.02,-0.06,0.02,-0.1,0.0,367.08
11.29,1.55,0.9,-0.02,-0.05,-0.65,0.0,0.0
11.44,2.38,0.13,-0.3,0.08,-1.3,391.17,581.83
9.68,3.09,0.8,-0.47,0.11,-1.68,0.0,310.43
9.02,4.34,0.96,-0.79,-0.07,-2.08,500.03,798.12
7.95,5.47,1.61,-0.98,-0.53,-2.27,452.88,627.54
5.63,6.52,1.68,-1.02,-0.88,-2.43,494.79,679.73
3.42,6.94,1.96,-1.22,-0.28,-2.08,613.17,929.84
1.72,8.51,2.59,-1.33,-0.2,-2.14,501.3,669.63
-0.81,7.7,5.5,-1.24,-0.94,-1.7,701.87,939.7
-2.31,6.87,6.78,-0.83,-0.26,-1.35,1080.62,1482.93
-2.09,7.01,6.59,0.42,0.62,0.57,669.43,784.91
-2.34,7.55,5.47,1.08,1.53,1.57,464.62,523.87
-2.44,7.27,4.23,1.31,1.47,2.26,386.43,448.83
0.82,7.18,2.34,1.17,0.93,2.73,505.75,588.19
3.95,7.11,1.44,1.07,0.88,3.03,525.7,635.34
8.06,5.87,-0.15,0.73,0.26,3.06,388.64,475.82
11.28,3.94,0.22,0.09,0.0,2.24,337.76,432.06
10.3,3.17,0.77,-0.01,0.32,1.4,0.0,0.0
9.86,2.39,0.91,-0.01,0.09,1.12,0.0,0.0
11.21,1.53,0.83,-0.03,-0.18,0.92,0.0,0.0
12.48,1.07,0.62,-0.09,0.27,0.06,0.0,0.0
8.33,1.47,1.59,-0.1,0.29,-0.01,0.0,0.0
10.53,1.16,1.02,-0.1,0.02,0.07,0.0,0.0
9.58,1.3,1.24,-0.06,0.14,-0.01,0.0,0.0
10.02,1.22,1.3,-0.07,0.04,0.03,0.0,0.0
9.87,1.38,1.27,-0.08,0.05,0.02,0.0,0.0
10.11,1.33,1.46,-0.06,0.07,-0.04,0.0,324.25
10.68,1.37,1.38,-0.01,0.06,-0.26,0.0,383.99
10.8,1.77,1.16,-0.0,-0.11,-0.51,303.18,421.94
11.34,2.47,0.63,-0.22,-0.02,-0.99,0.0,0.0
9.85,3.27,0.97,-0.36,0.1,-1.41,319.55,414.36
8.91,4.45,0.74,-0.6,-0.43,-1.67,0.0,389.66
8.28,5.61,0.76,-0.94,-0.74,-1.93,385.0,577.64
6.34,6.22,1.75,-1.11,-0.75,-2.14,538.4,816.61
5.03,6.98,1.89,-1.18,-0.72,-2.42,567.47,826.31
1.36,7.24,3.12,-1.36,-0.56,-2.09,511.17,655.6
0.5,7.58,4.14,-1.01,-0.32,-1.64,744.94,1056.44
0.22,7.64,4.58,-1.13,-0.29,-1.94,908.32,1327.73
-3.7,6.38,7.24,-0.58,-0.18,-0.91,1014.95,1359.77
-2.81,6.87,6.27,-0.28,0.11,-0.24,942.77,1228.94
-5.33,6.9,7.47,-0.13,0.19,-0.06,1067.92,1374.52
-4.12,6.86,6.26,-0.03,0.03,0.19,1030.62,1267.26
-2.88,7.02,6.25,0.01,0.15,0.3,723.5,886.99
-3.54,6.51,6.66,0.64,1.16,1.23,524.47,601.75
-4.1,7.17,5.2,1.18,1.61,2.21,539.87,601.84
-1.63,7.7,3.06,1.44,0.91,2.78,499.86,576.18
1.67,6.99,1.07,1.14,1.16,3.07,419.91,508.1
5.19,5.9,-0.13,0.58,0.23,3.29,320.8,399.15
9.59,4.43,-0.07,0.12,0.65,3.08,320.57,394.0
12.03,2.72,1.23,-0.09,0.0,2.08,0.0,305.14
9.79,2.01,1.37,-0.07,0.35,1.27,0.0,0.0
10.62,1.37,1.32,-0.05,-0.17,1.08,0.0,0.0
12.69,0.93,1.02,-0.05,0.07,0.24,0.0,0.0
9.78,1.11,1.48,-0.07,0.27,-0.24,0.0,0.0
9.47,1.17,1.34,-0.05,0.09,-0.02,0.0,0.0
10.1,1.27,1.06,-0.09,0.03,-0.01,0.0,0.0
10.09,1.26,1.42,-0.05,0.07,-0.02,0.0,0.0
11.77,1.29,1.49,-0.03,-0.04,-0.5,361.24,486.38
12.1,1.84,1.02,-0.19,0.26,-1.41,438.33,740.34
10.53,3.19,0.99,-0.43,0.04,-2.03,360.19,521.55
9.38,4.5,0.96,-0.72,-0.59,-2.54,405.37,544.12
6.82,5.49,0.91,-1.09,-1.01,-2.7,366.67,465.56
4.26,7.21,1.61,-1.17,-1.36,-2.46,553.29,796.78
3.77,7.88,2.02,-1.46,-0.92,-2.55,538.86,670.02
0.78,7.46,3.59,-1.4,-0.03,-2.56,498.18,718.73
-0.86,8.71,4.48,-0.69,-0.59,-1.08,772.68,1103.33
-3.4,6.86,6.18,-0.51,-0.68,-0.84,987.22,1306.23
-1.42,7.12,5.12,-0.34,-0.62,-0.41,1251.32,1587.98
-2.75,7.34,5.6,0.57,0.56,1.09,678.55,770.6
-2.49,7.65,4.61,0.92,1.09,1.52,523.82,596.32
-0.61,7.65,3.97,1.11,0.86,2.21,526.54,576.92
1.25,7.67,2.77,1.13,0.59,2.7,538.65,625.52
4.53,7.0,0.88,1.02,0.7,3.08,408.7,468.4
8.02,5.39,-0.24,0.7,-0.17,3.04,344.59,431.48
10.82,3.68,0.15,0.38,0.56,2.4,317.32,394.68
11.35,1.89,1.02,0.4,-0.14,1.65,0.0,331.9
10.21,1.64,-1.22,0.09,0.22,1.28,0.0,315.84
12.01,0.47,0.73,-0.1,0.41,0.78,0.0,303.36
11.11,0.64,0.12,0.03,0.12,0.08,0.0,0.0
10.56,0.21,1.26,-0.15,-0.47,0.13,0.0,0.0
8.87,0.42,1.35,-0.05,0.13,-0.02,0.0,0.0
9.96,0.25,1.44,-0.08,0.34,0.0,0.0,0.0
9.73,0.49,1.59,-0.04,0.09,0.03,0.0,0.0
10.02,0.51,1.52,-0.06,0.03,-0.02,0.0,0.0
10.1,0.47,1.64,-0.05,0.07,-0.06,0.0,0.0
11.97,0.55,1.8,-0.02,0.13,-0.4,0.0,447.03
12.28,1.34,0.75,-0.08,-0.2,-1.19,0.0,306.69
10.52,2.31,1.32,-0.35,0.19,-1.75,375.57,583.04
8.99,3.57,1.28,-0.57,-0.32,-2.06,306.76,399.95
8.04,5.13,0.99,-0.83,-0.98,-2.24,335.62,457.14
8.49,7.36,-0.1,-1.34,-1.73,-2.59,559.29,940.02
4.58,7.25,1.55,-1.39,-0.78,-2.28,538.83,673.79
2.36,7.73,2.86,-1.32,-0.48,-2.16,692.24,1013.59
-0.6,5.45,5.69,-1.25,-0.31,-1.93,795.84,1132.7
-2.33,6.98,6.32,-1.03,0.03,-1.41,913.6,1204.89
-3.29,7.62,6.85,-0.44,-0.13,-0.75,930.45,1283.37
-2.48,6.79,6.06,-0.19,0.17,-0.21,925.24,1151.68
-5.2,6.61,6.85,-0.1,0.28,-0.07,1044.9,1336.99
-3.3,7.05,6.4,0.07,0.63,0.22,595.08,681.33
-2.77,7.05,6.2,0.74,1.05,1.54,434.64,497.64
-2.0,6.73,4.91,1.11,1.16,2.42,456.96,519.39
1.26,7.03,3.32,1.15,0.99,3.03,436.54,508.03
5.23,6.67,0.76,1.11,0.78,3.14,401.61,471.07
7.47,5.43,1.39,0.37,0.63,2.98,430.45,522.35
10.1,3.89,1.75,0.12,0.75,2.16,375.73,468.36
9.23,2.93,1.87,0.13,-0.17,1.69,304.99,355.43
8.91,1.62,0.95,0.05,-0.59,1.62,0.0,301.31
12.63,0.52,0.5,0.15,-0.14,1.39,335.82,422.03
11.73,0.06,1.2,-0.15,0.47,-0.17,0.0,322.53
9.17,0.84,1.63,-0.09,0.08,0.05,0.0,0.0
10.72,0.21,1.39,-0.11,0.05,0.01,0.0,0.0
9.47,0.5,1.85,-0.07,0.04,-0.03,0.0,0.0
9.92,0.56,1.67,-0.07,0.19,-0.03,0.0,0.0
10.24,0.68,1.7,-0.07,-0.0,-0.1,0.0,0.0
11.27,0.72,1.23,-0.09,-0.09,-0.41,0.0,313.71
12.17,1.07,1.79,-0.2,0.31,-1.21,434.96,593.8
10.91,2.07,1.09,-0.34,0.31,-1.79,405.75,536.55
10.02,3.53,1.18,-0.57,-0.37,-2.19,354.81,421.02
8.21,5.19,1.91,-0.64,-1.14,-2.34,367.46,494.21
4.66,6.88,2.22,-0.74,-1.02,-2.69,425.42,551.08
4.93,7.87,0.4,-1.26,-1.36,-2.92,556.75,747.08
0.3,5.49,3.86,-1.57,-0.33,-2.57,818.52,1098.05
-4.03,5.42,6.45,-1.05,-0.2,-1.73,1078.26,1439.5
-3.9,7.08,6.16,0.09,0.37,0.33,620.64,725.9
-2.32,7.79,5.19,0.33,0.48,0.58,532.64,605.47
-3.45,7.24,5.11,0.86,1.87,1.32,378.98,443.06
-2.39,7.42,4.23,1.15,0.97,2.52,355.39,399.56
1.66,7.93,1.88,1.1,0.31,2.98,455.2,541.43
5.51,7.56,0.25,0.4,0.19,2.96,563.98,795.24
8.79,5.25,1.71,0.36,0.76,2.58,501.6,658.86
9.84,3.72,1.83,0.39,0.69,2.0,348.18,403.8
8.81,2.74,1.19,0.21,-0.08,1.69,342.55,392.12
10.93,1.66,0.94,0.05,-0.55,1.4,0.0,330.83
12.11,1.36,1.25,0.0,0.19,0.69,0.0,302.04
10.84,1.15,1.53,-0.1,0.17,0.0,0.0,302.32
9.21,1.17,1.9,-0.08,0.02,0.06,0.0,310.5
10.02,1.06,1.57,-0.09,0.16,0.02,0.0,338.06
9.69,1.09,1.61,-0.07,0.09,0.0,0.0,317.34
9.77,0.98,1.83,-0.04,0.01,0.0,0.0,0.0
9.88,1.08,1.85,-0.04,-0.03,0.03,0.0,319.17
11.27,1.34,1.7,-0.01,0.16,-0.25,322.22,389.79
11.08,1.67,1.41,0.03,-0.25,-0.9,349.07,435.1
10.62,2.4,0.46,-0.4,0.3,-1.48,301.06,359.51
8.77,3.65,1.84,-0.51,-0.21,-1.63,393.17,467.07
8.74,4.89,1.78,-0.62,-0.34,-1.72,356.14,437.74
7.24,5.99,1.56,-0.81,-0.44,-1.99,506.41,695.45
6.62,6.25,1.06,-1.21,-0.64,-2.24,474.29,578.26
2.19,6.6,4.27,-0.83,-0.01,-2.11,562.11,720.35
0.29,7.94,3.66,-1.01,-0.57,-1.91,746.91,1012.07
-1.88,7.24,4.73,-0.95,-0.66,-1.56,811.67,1129.76
0.42,7.44,4.78,-0.94,-0.73,-1.5,917.03,1246.42
0.78,8.79,4.61,-0.38,-0.27,-0.58,893.54,1141.35
-0.58,8.2,5.47,-0.3,-0.26,-0.47,882.23,1144.46
-1.88,7.39,5.87,0.05,0.13,0.26,892.54,1171.87
-3.09,6.88,6.11,0.37,1.31,0.69,565.71,686.12
-2.97,7.22,5.95,1.02,1.51,2.0,459.94,551.02
-0.65,7.06,4.89,1.11,1.12,2.46,453.73,527.38
1.63,7.73,1.69,1.11,0.9,2.93,463.39,524.15
4.61,7.19,0.67,0.64,0.46,3.12,373.0,464.89
8.8,4.97,0.37,0.32,0.02,2.87,455.13,539.06
11.04,3.16,1.03,0.07,0.72,2.11,314.76,379.21
10.82,2.21,0.63,0.11,-0.45,1.32,0.0,325.89
9.57,2.03,0.89,-0.01,-0.13,1.24,0.0,0.0
12.07,1.01,0.61,-0.02,0.2,0.99,0.0,0.0
11.46,0.61,0.97,-0.09,0.33,0.09,0.0,0.0
9.81,0.8,1.19,-0.08,0.14,0.04,0.0,0.0
10.32,0.52,1.32,-0.09,0.06,0.02,0.0,0.0
9.72,0.62,1.31,-0.09,0.14,0.01,0.0,0.0
10.08,0.61,1.44,-0.08,0.06,0.05,0.0,0.0
10.21,0.59,1.47,-0.08,-0.02,-0.01,0.0,0.0
12.15,0.55,1.48,-0.01,-0.44,-0.49,0.0,302.61
12.11,1.33,0.38,-0.15,-0.08,-1.58,0.0,332.04
10.51,2.7,-0.23,-0.62,-0.09,-2.11,375.98,495.41
9.33,4.21,0.37,-0.96,-0.53,-2.3,332.55,429.42
7.02,6.11,0.77,-1.07,-0.47,-2.64,432.59,611.82
4.01,6.07,1.43,-1.47,-0.74,-3.32,715.74,1082.84
1.02,6.62,2.11,-1.04,0.02,-2.45,891.12,1216.02
-1.66,7.4,4.4,-1.07,-0.56,-1.85,953.29,1272.36
-2.14,7.8,5.45,-0.83,-0.16,-1.57,1278.6,1604.45
-2.04,7.7,4.45,0.34,1.05,0.79,920.71,989.39
-0.72,7.33,4.21,0.72,0.97,1.7,572.15,636.92
-1.53,7.02,3.67,1.01,0.8,2.45,346.29,410.9
1.76,7.12,1.79,1.11,0.11,3.17,427.54,507.62
5.59,6.63,1.23,0.83,0.55,3.29,461.1,579.3
10.08,4.19,0.89,0.67,1.07,2.75,549.51,776.09
10.52,2.91,-0.0,0.24,0.02,1.93,383.37,462.43
10.47,2.53,0.01,-0.04,0.07,1.15,329.27,383.35
12.57,2.38,0.3,-0.04,0.0,0.62,309.08,349.74
11.32,2.49,0.27,-0.15,0.39,-0.33,0.0,307.98
9.73,2.7,0.88,-0.23,0.03,0.03,0.0,0.0
9.65,2.54,1.01,-0.25,0.46,-0.03,0.0,0.0
9.73,2.36,2.01,-0.41,0.3,0.08,315.98,408.1
9.54,2.23,1.94,-0.37,0.21,0.04,0.0,306.66
9.39,1.72,2.53,-0.29,0.17,-0.01,0.0,343.74
8.99,1.95,2.8,-0.25,0.23,-0.07,0.0,0.0
9.2,2.13,3.07,-0.19,0.15,-0.12,0.0,330.25
9.16,2.56,3.37,-0.11,0.11,-0.07,0.0,0.0
9.06,2.33,3.19,-0.07,0.09,-0.05,0.0,304.44
8.99,2.6,3.15,-0.1,0.04,-0.06,0.0,378.24
9.18,2.62,3.14,-0.15,0.02,-0.04,0.0,0.0
9.04,2.7,3.12,-0.14,-0.01,0.01,0.0,355.73
9.07,2.6,3.12,-0.12,-0.02,0.04,0.0,0.0
