ax,ay,az,gx,gy,gz,mav,rms
9.11,2.09,3.43,-0.07,-0.05,0.1,658.41,876.58
9.46,2.5,3.82,-0.09,-0.25,0.16,542.84,717.18
9.64,2.31,3.07,-0.31,-0.53,0.2,464.23,593.2
10.01,1.56,2.29,-0.37,-0.5,0.16,489.52,662.46
9.74,0.92,2.61,0.27,-0.15,-0.21,468.16,590.37
8.49,1.64,0.28,0.53,-0.11,-0.08,954.05,1269.68
8.69,1.75,-0.22,0.27,-0.26,0.4,589.41,712.73
10.11,0.66,0.93,0.2,-0.03,0.54,510.28,577.08
10.15,0.4,0.48,0.2,-0.09,0.38,419.66,477.43
9.86,0.33,0.28,0.0,-0.29,0.45,409.54,479.58
11.22,-0.21,0.66,-0.07,-0.33,0.36,454.3,703.91
14.39,0.09,-0.46,-0.1,-0.46,-0.76,641.32,895.78
14.72,0.53,-1.21,-0.53,-0.08,-2.2,828.44,1187.18
11.77,2.15,-1.29,-0.67,-0.09,-3.63,1380.21,1728.15
-0.78,8.17,1.7,-0.55,-0.15,-1.76,1036.2,1273.01
-2.54,8.21,3.7,-0.16,0.27,-0.15,1004.69,1218.36
-0.85,9.69,1.75,0.53,0.49,1.04,766.93,965.94
-2.71,6.26,1.14,1.14,0.9,3.07,786.54,1011.04
3.93,6.09,-1.39,0.97,0.35,4.11,982.27,1255.11
9.38,3.9,-2.31,0.44,0.2,3.85,1218.08,1466.26
13.58,0.59,-1.36,0.23,0.59,2.85,876.56,1022.28
12.94,-0.38,-0.29,-0.04,0.63,1.47,709.75,832.79
12.38,-0.81,0.15,0.11,0.25,0.63,1222.78,1525.56
12.9,-0.62,-1.89,-0.02,-0.12,0.04,649.59,752.65
9.6,-0.59,0.4,-0.14,0.19,-0.01,600.22,688.71
10.42,-0.56,-0.61,-0.05,0.01,-0.06,467.37,538.9
10.31,-0.42,-0.4,-0.14,0.14,0.03,1022.67,1339.6
10.55,-0.4,-0.2,-0.07,-0.05,-0.01,912.64,1164.59
10.47,-0.25,-0.11,-0.1,-0.2,-0.19,798.95,1049.14
15.31,0.13,-1.35,-0.4,-0.15,-1.59,723.79,893.85
11.43,1.17,-0.9,-0.7,-0.15,-2.84,808.67,1034.69
10.41,3.22,-2.13,-0.88,-0.36,-3.46,1272.43,1612.44
4.2,3.75,0.13,-1.08,-0.03,-3.49,1353.11,1572.78
-0.22,4.98,2.32,-1.28,-0.18,-3.52,1223.18,1428.44
-1.31,9.77,2.83,0.22,0.56,0.41,1027.39,1214.3
-2.78,7.15,2.23,0.91,0.81,2.41,1146.65,1306.54
1.41,7.1,0.4,1.27,0.53,3.64,862.3,1112.76
7.1,6.49,-1.13,0.91,0.63,3.46,1399.21,1591.61
10.26,4.39,-1.58,0.49,0.55,2.71,1373.54,1548.11
11.26,2.47,-0.73,0.07,0.42,1.96,1410.52,1568.46
9.74,1.92,0.48,0.23,0.52,1.27,1393.31,1497.93
9.51,1.33,-0.23,0.09,0.02,1.33,1169.11,1347.52
15.87,-0.46,-0.57,0.07,0.0,0.43,928.43,1080.3
8.8,0.74,-0.1,-0.15,0.17,0.05,789.65,892.55
10.52,-0.21,0.2,-0.05,0.14,0.04,641.25,741.52
9.64,0.3,0.11,-0.09,0.07,0.02,572.4,659.6
10.53,-0.03,0.06,-0.09,0.01,-0.01,470.49,548.87
10.31,0.43,0.05,-0.1,-0.07,-0.09,469.86,548.34
10.53,0.32,0.32,-0.1,-0.09,-0.18,505.97,722.53
13.68,0.47,-0.45,-0.1,-0.01,-1.12,568.02,781.16
11.6,2.2,-1.03,-0.36,0.2,-1.91,931.45,1215.68
12.06,3.16,-1.46,-0.56,-0.07,-2.58,1047.36,1355.97
8.85,5.26,-0.69,-0.72,-0.34,-3.45,1080.59,1335.11
2.25,3.81,-0.5,-0.94,-0.4,-3.67,1113.17,1402.76
-2.07,8.98,3.44,-0.02,-0.03,0.22,899.83,1082.48
-2.52,8.0,2.57,0.73,0.59,1.66,939.44,1159.77
-1.71,5.97,1.87,1.24,0.74,3.44,888.85,1108.15
4.95,7.63,-1.31,1.06,0.4,3.46,1236.95,1484.68
8.68,3.33,-2.09,0.35,0.45,3.26,1452.1,1672.58
11.69,0.78,-1.29,0.24,0.5,2.74,913.67,1086.53
11.76,0.53,-0.71,0.16,0.64,1.48,986.79,1070.7
10.53,-0.45,0.09,0.16,0.23,1.34,693.86,781.47
14.22,-1.5,-0.95,0.17,0.35,0.32,488.29,577.16
10.34,-0.63,-0.38,-0.17,-0.05,0.01,448.19,516.28
10.06,-1.01,-0.05,-0.11,0.07,-0.06,382.31,447.64
10.17,-0.88,-0.29,-0.07,0.11,-0.02,333.03,377.65
10.19,-0.82,-0.24,-0.11,0.06,-0.02,330.57,427.43
10.35,-0.79,-0.16,-0.05,0.02,0.01,0.0,313.79
10.24,-0.94,-0.17,-0.05,0.04,0.0,335.92,423.77
10.12,-0.71,-0.48,-0.08,0.03,-0.04,303.09,366.6
12.92,-0.85,-0.64,-0.15,-0.37,-0.64,670.77,1000.72
12.33,0.06,-0.89,-0.38,0.25,-1.71,953.85,1322.38
13.66,1.29,-1.97,-0.68,-0.18,-2.63,1124.01,1441.58
8.71,2.98,-0.39,-0.92,-0.26,-3.47,1542.98,1792.71
-3.2,7.68,1.32,-0.79,-0.05,-2.85,1138.94,1341.32
-6.03,8.68,3.42,-0.24,-0.51,0.07,1221.94,1419.19
-2.52,8.63,2.74,-0.19,0.05,0.2,987.55,1164.77
-2.86,7.52,3.29,0.12,0.34,0.83,1083.81,1302.07
-0.8,7.18,2.01,0.66,0.63,2.59,1007.28,1235.13
1.97,6.22,1.55,0.93,0.95,3.7,986.92,1187.92
7.6,6.1,-0.53,0.77,0.03,4.14,1325.07,1577.44
12.35,1.22,-1.34,0.34,-0.26,3.67,1320.81,1535.49
14.82,-0.66,-1.47,-0.01,0.04,2.32,1087.22,1282.15
15.42,-0.76,-0.13,0.05,-0.32,0.76,1193.94,1261.21
9.39,0.32,-0.2,0.1,-0.05,-0.15,748.23,840.8
10.11,-0.4,0.03,-0.12,0.05,0.08,1094.54,1386.62
9.5,-0.31,0.09,-0.11,0.04,-0.01,1229.24,1563.53
9.89,-0.39,0.05,-0.11,0.05,-0.07,1584.0,1810.4
10.3,-0.24,-0.02,-0.09,0.07,-0.0,1657.35,1736.27
10.15,-0.21,-0.21,-0.08,0.0,-0.03,1452.45,1510.75
10.65,-0.15,-0.04,-0.12,-0.07,-0.1,1334.58,1452.92
10.8,0.23,-0.23,-0.27,0.19,-0.25,1652.61,1778.08
11.68,0.25,0.28,-0.14,-0.32,-0.58,1409.61,1523.97
13.51,0.97,-1.27,-0.34,0.37,-1.59,1316.47,1463.4
2.24,5.6,-0.72,-0.82,-0.97,-3.83,1232.65,1410.21
0.28,6.88,0.43,-0.92,-0.75,-3.21,1284.98,1445.98
-3.1,8.17,2.98,-0.49,-0.33,-1.08,1157.78,1345.17
-1.78,9.92,2.39,-0.17,0.02,-0.17,1084.57,1263.16
-3.34,8.87,2.67,-0.05,0.25,0.3,850.96,1009.1
-3.43,7.3,3.13,0.55,0.46,2.22,878.77,1050.43
-0.18,6.31,2.03,1.01,0.59,3.59,923.09,1182.53
5.95,4.95,-0.24,0.6,0.04,3.68,1284.93,1537.75
9.58,3.87,-0.48,0.34,0.28,3.08,1193.52,1449.84
10.42,3.21,0.23,-0.06,0.56,2.11,871.72,1015.25
12.45,2.02,1.09,-0.21,0.33,1.32,961.91,1066.38
12.36,1.07,1.99,0.05,0.08,0.32,691.91,757.37
10.03,1.26,0.75,0.06,-0.24,-0.02,883.76,1192.75
10.03,1.22,0.91,-0.11,-0.05,-0.07,527.92,604.85
9.69,1.42,0.95,-0.11,-0.06,-0.04,405.49,465.73
10.15,1.18,0.79,-0.06,-0.02,0.03,1258.93,1707.85
10.11,1.42,0.69,-0.03,0.03,0.01,1637.65,1899.32
9.7,1.33,0.56,-0.03,0.01,0.04,1049.31,1224.85
10.45,1.24,0.57,-0.15,-0.07,-0.07,780.73,888.27
10.39,1.48,0.74,-0.11,-0.09,-0.04,544.89,638.08
12.33,1.48,0.33,-0.1,-0.25,-0.43,490.55,557.99
13.54,2.11,-0.11,-0.29,0.03,-1.51,1818.81,2128.51
1.98,3.82,1.6,-0.92,-0.71,-4.33,1125.2,1345.68
-4.57,4.19,2.26,-0.7,0.28,-2.78,1041.96,1264.82
-3.5,9.37,1.94,-0.22,-0.2,-0.6,1021.78,1233.12
-4.68,8.9,2.6,-0.07,0.02,0.07,974.2,1134.97
-4.8,8.5,2.39,0.04,0.23,0.75,1683.27,1885.23
-4.32,7.19,1.96,0.36,0.42,2.63,1446.54,1615.51
1.32,5.81,1.49,0.58,0.15,3.89,1467.88,1588.21
5.13,4.93,2.27,0.51,1.15,3.56,1251.76,1406.64
10.73,3.51,-0.41,0.22,0.23,3.22,1195.44,1357.76
14.12,1.34,-0.34,-0.17,-0.04,2.13,1146.85,1272.19
10.64,1.03,1.94,-0.15,0.18,1.04,1161.65,1244.57
11.17,0.52,0.84,0.18,0.06,0.79,906.61,956.73
11.53,0.02,0.15,-0.06,0.17,-0.09,574.01,649.04
9.52,0.5,1.07,-0.14,-0.0,-0.04,433.01,492.63
10.23,0.53,1.0,-0.05,-0.06,-0.02,378.51,450.05
10.09,0.56,0.71,-0.11,-0.02,-0.0,346.44,397.16
10.32,0.45,0.93,-0.06,0.03,-0.02,330.72,383.09
10.2,0.54,0.96,-0.07,0.08,-0.01,0.0,339.43
10.21,0.57,0.87,-0.08,0.07,-0.01,0.0,0.0
10.67,0.63,0.99,-0.1,-0.03,-0.06,301.29,348.45
11.65,0.85,0.49,-0.05,-0.09,-0.48,350.33,494.28
14.14,1.49,0.58,-0.16,-0.41,-1.25,1083.28,1464.27
4.67,4.12,1.61,-0.91,-0.54,-4.11,1360.02,1717.75
-1.18,3.96,1.41,-0.58,0.14,-3.37,953.43,1199.59
-3.13,7.88,2.78,-0.34,-0.11,-1.0,802.11,1002.23
-3.56,8.97,3.0,-0.08,0.04,0.17,752.82,916.38
-2.99,8.49,2.37,0.19,0.28,1.46,671.93,874.24
-1.48,7.75,1.92,0.34,0.29,2.79,1337.66,1646.14
4.03,7.22,1.41,0.22,0.51,3.42,1549.61,1737.51
9.23,4.41,0.75,0.2,0.2,3.21,1473.49,1608.37
11.38,2.18,1.23,0.28,0.08,2.48,1173.07,1356.2
10.7,1.44,0.65,0.02,-0.04,1.92,1187.43,1349.52
16.2,0.31,0.32,0.05,-0.43,1.1,1123.06,1294.82
9.21,0.99,1.16,0.08,0.14,-0.26,980.72,1147.37
10.76,0.73,0.43,0.01,-0.06,0.05,1068.1,1264.28
9.62,0.82,0.91,-0.14,-0.0,-0.16,1008.72,1215.93
9.5,1.08,1.14,-0.13,0.06,-0.05,1034.44,1249.39
9.94,0.92,1.13,-0.06,-0.01,-0.05,975.27,1174.75
10.12,1.04,0.65,-0.05,0.03,-0.02,978.48,1159.66
9.99,1.06,0.91,-0.1,0.04,0.0,973.86,1178.58
10.08,1.12,1.01,-0.06,0.0,0.01,1002.31,1242.8
10.21,1.23,0.78,-0.07,-0.05,-0.01,940.16,1156.45
9.73,1.28,0.67,-0.11,-0.0,-0.05,937.93,1130.04
11.34,1.37,0.69,-0.14,-0.11,-0.19,956.0,1189.14
14.85,1.5,0.75,-0.18,0.04,-1.59,984.44,1170.84
11.9,3.12,-0.31,-0.28,-0.31,-3.05,1102.56,1310.73
9.3,4.3,-0.75,-0.8,-0.61,-3.95,1203.28,1414.68
-4.56,8.7,2.63,-0.12,-0.43,-0.42,969.54,1142.92
-4.52,9.09,2.89,0.23,0.04,0.63,1113.83,1281.37
-5.07,8.78,1.61,0.53,0.36,1.77,700.1,885.58
-1.66,6.86,0.37,0.69,0.73,3.28,1557.19,1752.01
3.58,5.25,-0.32,0.39,0.86,4.05,1585.59,1698.26
9.46,2.18,-0.69,-0.04,0.18,4.29,1280.15,1423.61
15.24,-1.11,0.17,-0.05,0.65,3.03,1055.88,1242.7
15.76,-1.07,1.48,-0.41,0.08,0.63,921.6,1067.61
8.27,0.63,1.89,0.11,0.05,-0.16,863.83,980.16
10.73,-0.01,0.2,0.01,0.1,0.01,751.07,844.37
10.19,0.45,0.54,-0.15,0.15,-0.01,697.73,826.73
10.36,0.22,0.81,-0.1,0.12,-0.05,606.3,715.38
9.96,0.36,0.86,-0.12,0.02,-0.07,481.45,569.67
9.99,0.44,0.99,-0.12,0.04,-0.06,503.26,580.21
9.95,0.58,1.04,-0.06,0.04,-0.03,549.53,657.1
10.16,0.65,0.81,-0.09,0.1,-0.04,595.31,778.58
9.87,0.56,1.07,-0.07,0.02,-0.01,570.41,743.27
10.59,0.71,1.06,-0.06,-0.09,-0.11,591.35,701.57
12.22,0.85,0.82,-0.12,-0.04,-0.57,570.41,686.98
12.17,1.7,1.14,-0.14,0.02,-1.57,765.92,978.57
14.26,3.44,-0.8,-0.33,-0.28,-2.85,898.78,1148.58
8.37,3.16,-0.04,-0.81,0.02,-3.85,868.55,1131.88
2.79,4.27,1.78,-0.81,-1.17,-3.72,1165.6,1431.84
-4.26,8.58,2.92,-0.18,-0.06,-0.19,1147.46,1375.57
-3.97,8.68,2.55,0.19,0.41,0.96,1274.1,1517.67
-3.35,8.23,1.82,0.44,0.62,2.13,1573.78,1677.47
0.56,7.9,0.97,0.71,0.37,2.97,1473.1,1555.41
3.77,7.03,0.31,0.31,1.09,2.92,1321.67,1430.01
7.11,4.34,0.62,0.45,0.57,2.99,1084.85,1253.15
10.15,2.67,-0.0,0.32,0.13,2.86,1251.93,1391.69
12.47,1.94,-0.61,-0.05,0.48,1.85,1187.04,1320.04
12.5,1.17,0.43,-0.33,-0.08,0.87,1208.37,1345.74
11.44,1.07,0.74,-0.15,0.28,0.08,1117.66,1294.96
9.73,1.17,0.54,-0.01,-0.14,0.03,1055.03,1254.85
9.96,1.19,0.62,-0.06,0.04,-0.02,1012.69,1230.16
9.96,1.23,0.78,-0.08,0.08,-0.04,1144.47,1362.33
10.02,1.26,0.51,-0.1,0.05,-0.03,1003.01,1188.35
9.84,1.36,0.81,-0.11,-0.01,-0.01,1040.49,1213.08
10.27,1.37,0.66,-0.08,-0.1,-0.02,1025.6,1223.06
11.03,1.43,0.63,-0.11,-0.15,-0.21,1044.51,1256.67
11.39,2.0,0.32,-0.17,0.02,-0.76,1040.29,1214.18
11.04,2.62,1.03,-0.12,-0.42,-1.29,1157.64,1329.29
10.7,3.83,-0.37,-0.23,-0.07,-1.98,1084.5,1275.65
9.79,5.46,-0.79,-0.48,-0.56,-2.59,1169.08,1327.26
6.99,6.64,-0.59,-0.6,-0.45,-3.17,1346.41,1487.99
-4.31,6.95,2.53,-0.43,0.01,-1.7,1375.53,1490.2
-5.07,8.26,2.38,0.13,-0.06,0.64,1218.45,1365.34
-5.25,8.78,1.77,0.31,0.62,1.34,943.63,1122.27
-2.67,7.55,1.15,0.56,0.35,2.59,1114.31,1330.34
0.98,8.02,0.32,0.65,0.44,3.05,1581.47,1701.56
5.34,7.53,-0.96,0.46,0.43,3.02,1512.08,1591.36
8.37,5.45,-0.6,0.3,0.31,2.85,1205.69,1363.3
10.74,3.93,-0.88,0.06,0.55,2.35,1217.33,1354.64
11.22,1.73,0.41,-0.1,0.08,1.83,1028.31,1194.34
12.27,1.29,0.29,-0.14,0.44,0.79,779.28,897.5
11.19,1.24,0.27,-0.14,0.17,-0.05,708.65,862.71
9.92,1.4,0.36,-0.11,-0.05,0.06,878.59,1082.41
10.47,1.45,0.38,-0.11,0.03,0.02,977.27,1190.79
9.98,1.36,0.53,-0.08,0.08,0.02,915.75,1070.43
10.23,1.39,0.25,-0.1,0.03,0.02,779.01,912.81
9.96,1.35,0.63,-0.1,0.07,0.0,795.05,945.48
10.13,1.48,0.58,-0.09,0.11,0.0,828.78,1051.28
10.54,1.49,0.57,-0.12,-0.02,-0.06,877.71,1137.34
12.25,1.71,0.18,-0.17,-0.12,-0.44,990.01,1164.03
11.95,2.01,0.57,-0.29,-0.07,-1.23,898.11,1068.79
11.14,3.34,-0.14,-0.4,-0.3,-1.92,991.96,1206.43
10.73,5.05,-0.52,-0.66,-0.65,-2.63,889.24,1096.81
7.62,5.68,-0.12,-0.88,-0.49,-3.41,1377.29,1577.71
-5.99,7.64,2.83,-0.22,0.38,-0.91,1032.37,1195.79
-3.98,9.11,2.04,-0.07,0.04,0.23,965.85,1162.3
-4.29,8.46,2.41,0.05,0.11,0.85,702.72,839.37
-3.35,7.27,2.46,0.51,0.46,2.21,1233.23,1532.12
-0.52,7.33,1.24,0.8,0.95,3.07,1722.41,1855.99
4.02,6.87,-0.1,0.71,0.72,3.21,1432.79,1538.13
7.05,5.22,0.7,0.34,0.47,3.18,1244.4,1405.49
10.92,3.4,0.04,0.15,0.63,2.71,1103.95,1264.34
11.0,2.11,0.39,-0.03,0.68,1.69,901.99,1027.5
12.48,1.28,0.49,-0.08,-0.01,1.07,822.2,930.35
11.69,1.15,0.77,-0.02,-0.0,0.11,862.03,1127.31
9.63,1.26,0.78,-0.01,0.04,-0.04,942.16,1201.03
9.88,1.13,0.69,-0.08,0.03,-0.02,805.58,990.44
10.08,1.32,0.6,-0.1,0.12,-0.08,786.72,887.94
9.98,1.43,0.7,-0.08,0.11,-0.01,730.8,847.71
10.13,1.35,0.75,-0.07,0.09,-0.02,681.78,813.57
9.88,1.49,0.99,-0.11,0.05,-0.01,737.37,948.73
10.13,1.43,0.93,-0.05,0.03,-0.02,802.01,1081.36
10.56,1.64,0.7,-0.09,0.06,-0.21,795.16,1011.74
11.79,1.81,0.95,-0.16,-0.04,-0.65,782.7,971.73
12.98,2.63,0.39,-0.14,0.08,-1.73,813.97,1040.16
10.81,4.07,-1.29,-0.41,-0.21,-2.64,884.6,1047.2
8.41,5.33,0.2,-0.94,-0.7,-3.16,987.2,1191.74
4.64,6.11,0.86,-1.18,-0.86,-3.67,1307.21,1534.05
-4.28,9.6,2.45,-0.11,-0.11,0.03,840.47,1021.27
-4.27,9.01,2.67,-0.07,0.03,0.49,760.28,907.23
-4.64,8.01,2.82,0.3,0.56,1.52,1067.94,1329.2
-2.4,6.41,2.28,0.62,0.29,2.9,1559.38,1766.47
2.44,7.34,0.94,0.86,0.33,3.4,1659.74,1746.57
7.52,6.25,-0.16,0.87,0.38,3.04,1245.59,1355.66
10.12,3.84,-0.63,0.48,0.54,2.72,1003.06,1163.01
11.76,2.41,-0.83,0.07,0.35,1.95,973.1,1103.16
11.29,1.47,0.46,-0.13,0.33,1.34,785.06,914.31
13.5,0.81,0.25,-0.15,0.32,0.4,691.56,822.55
9.51,1.43,0.81,-0.13,0.05,-0.07,749.86,945.19
10.58,1.1,0.66,-0.06,0.09,0.01,808.33,1032.0
10.05,1.15,0.64,-0.1,0.01,-0.05,748.43,938.6
10.13,1.12,0.82,-0.07,-0.03,-0.02,713.22,891.43
10.1,1.45,0.46,-0.07,-0.06,-0.02,710.92,833.17
9.93,1.41,0.83,-0.11,0.01,-0.03,648.27,793.59
9.67,1.33,1.04,-0.08,0.01,-0.01,810.26,1030.17
10.17,1.45,0.7,-0.07,0.01,-0.01,856.66,1041.93
12.89,1.42,0.92,-0.12,-0.16,-0.65,834.35,1103.64
12.24,2.25,0.34,-0.22,-0.14,-1.72,1011.44,1233.85
10.04,3.88,-0.41,-0.48,-0.19,-2.38,867.98,1069.56
8.86,5.28,-0.15,-0.91,-0.51,-2.92,1026.59,1238.36
5.82,6.81,0.36,-1.02,-0.7,-3.53,1185.24,1401.06
-3.92,7.82,2.24,-0.47,0.07,-0.95,1417.21,1584.24
-3.99,9.06,2.72,-0.05,0.12,0.58,1240.22,1393.03
-3.65,8.48,3.31,0.38,0.4,1.52,1377.07,1502.2
-0.66,8.48,2.02,1.1,0.78,2.25,1482.02,1589.7
1.1,7.36,0.63,1.36,0.49,2.85,1518.91,1600.52
5.54,5.9,-0.99,1.24,0.11,3.06,1308.76,1437.73
10.33,4.82,-2.69,0.69,0.74,2.81,1073.31,1273.94
11.12,2.84,-2.79,-0.26,0.77,2.13,1097.8,1249.0
10.63,1.57,0.34,-0.53,0.83,1.52,871.03,993.22
12.9,1.05,0.25,-0.54,0.52,0.63,759.33,884.51
8.24,1.65,0.72,-0.1,1.02,-0.22,640.32,723.93
11.84,0.99,0.7,-0.11,-0.16,-0.0,582.09,668.25
9.85,1.32,0.67,-0.12,-0.06,0.0,585.0,705.97
9.85,1.22,1.09,-0.08,-0.03,0.01,536.15,637.17
9.67,1.38,1.1,-0.04,0.01,0.01,504.39,573.7
10.03,1.26,0.96,-0.03,0.09,0.01,481.23,570.76
10.08,1.28,1.09,-0.01,0.1,-0.01,488.6,603.3
9.86,1.5,1.16,-0.05,0.08,-0.01,533.68,669.19
9.92,1.47,1.06,-0.08,0.05,0.01,516.05,666.65
9.91,1.57,1.15,-0.1,0.1,0.0,537.53,645.08
10.02,1.47,1.33,-0.1,0.07,0.0,481.74,591.93
10.0,1.33,1.24,-0.15,-0.06,-0.0,493.57,596.4
10.77,1.45,1.47,-0.19,-0.19,-0.09,514.33,607.38
13.7,1.93,0.32,-0.04,-0.13,-1.01,674.74,921.57
9.37,2.81,0.77,0.02,0.12,-1.55,593.04,695.98
10.75,4.35,-0.2,-0.33,-0.56,-1.85,802.12,1101.21
10.0,5.46,-0.22,-0.8,-0.31,-2.61,749.33,1018.89
5.96,5.64,0.82,-0.95,-0.66,-3.28,1067.78,1414.52
-4.14,8.15,2.78,-0.32,0.33,-0.73,1027.14,1311.58
-4.35,8.64,3.17,-0.06,0.17,0.51,1188.11,1446.86
-4.43,8.51,3.18,0.48,0.83,1.77,1508.56,1679.38
-0.95,7.97,1.64,1.19,0.72,2.82,1551.84,1676.1
2.39,7.7,-0.28,1.24,0.74,3.24,1452.39,1570.92
7.12,5.51,-1.25,0.9,0.59,3.23,984.96,1145.27
11.14,3.75,-2.16,0.26,0.46,2.76,1010.12,1213.65
12.67,2.06,-1.29,-0.66,0.63,1.57,978.96,1115.58
11.35,1.41,2.28,-0.68,0.65,0.76,777.36,879.02
9.49,1.59,-0.12,-0.16,0.27,0.54,616.42,713.34
12.37,0.66,1.91,-0.22,-0.46,-0.03,494.32,583.07
8.59,1.91,0.81,-0.08,0.08,-0.11,501.59,613.77
9.51,1.67,1.41,-0.06,0.18,-0.04,481.41,562.65
9.79,1.46,1.18,-0.07,0.18,0.0,466.99,569.57
9.8,1.61,1.11,-0.04,0.14,-0.05,411.92,496.99
9.6,1.81,1.21,-0.06,0.05,-0.02,475.95,563.52
9.68,1.85,1.35,-0.07,0.07,-0.0,478.02,573.71
10.05,1.68,1.29,-0.06,0.05,-0.01,482.43,612.82
10.18,1.91,1.3,-0.07,-0.01,-0.04,442.24,560.22
11.17,1.75,1.47,-0.04,-0.18,-0.41,582.07,738.06
11.91,2.32,1.59,-0.13,0.21,-0.98,723.31,952.76
11.38,3.78,-0.16,-0.2,0.08,-1.86,570.43,650.56
9.37,4.67,-0.19,-0.55,-0.27,-2.23,663.38,926.36
8.7,6.13,0.11,-0.86,-0.46,-2.77,1071.3,1376.13
3.56,5.81,1.15,-0.81,-0.73,-3.28,945.1,1246.83
-0.45,6.89,2.07,-0.83,-0.54,-3.14,1297.54,1566.12
-4.61,8.07,3.38,0.02,0.32,0.59,918.22,1081.54
-3.35,7.6,3.42,0.35,0.54,1.76,1584.32,1788.69
-1.29,7.14,2.78,0.76,0.41,2.65,1525.97,1647.54
2.77,7.51,1.31,0.85,0.48,3.19,1435.21,1550.1
6.93,6.89,0.62,0.74,-0.01,3.01,1387.76,1527.16
9.37,5.65,-0.42,0.72,0.16,2.58,1111.22,1258.94
11.55,3.68,-0.39,0.14,0.39,1.65,1053.6,1197.22
10.51,3.4,-0.41,-0.13,0.33,0.86,867.98,946.46
10.03,3.02,0.37,-0.2,0.36,0.75,776.45,862.24
11.76,1.98,1.71,-0.14,0.03,0.3,745.69,908.39
9.02,2.55,1.17,-0.19,0.38,-0.07,781.74,1068.09
10.63,2.21,0.76,-0.06,0.02,0.03,819.73,1163.23
9.56,2.33,1.05,-0.05,0.07,-0.01,821.72,1077.92
9.55,2.38,1.07,-0.04,0.15,-0.03,801.72,1062.77
9.69,2.45,0.95,-0.08,0.11,-0.02,776.28,977.94
9.68,2.58,0.95,-0.12,0.05,-0.0,778.7,911.28
9.81,2.57,0.89,-0.11,-0.03,0.02,735.12,886.0
9.8,2.45,1.23,-0.06,0.02,0.01,766.88,940.11
9.43,2.43,1.02,-0.07,-0.04,0.03,780.82,970.68
9.81,2.4,0.97,-0.05,0.02,0.02,814.4,1045.44
9.7,2.48,1.17,-0.09,0.03,0.02,817.99,1008.19
9.71,2.36,1.39,-0.06,-0.05,0.02,815.69,981.56
9.39,2.45,1.38,-0.08,0.04,0.04,865.38,997.1
10.13,2.63,1.12,-0.05,0.28,-0.1,831.39,990.23
9.02,2.72,0.77,0.0,0.07,-0.11,839.14,1039.82
9.41,2.66,0.93,-0.13,-0.09,0.15,876.44,1106.47
10.53,2.5,1.01,-0.11,0.1,0.05,907.91,1100.46
9.52,2.6,1.04,-0.08,0.18,-0.0,952.32,1151.23
9.87,2.66,1.18,-0.09,0.04,0.02,855.47,1034.24
9.59,2.63,1.23,-0.07,0.03,0.02,898.6,1056.91
9.64,2.6,1.2,-0.08,0.04,0.03,946.35,1143.44
9.57,2.62,1.25,-0.07,0.05,0.0,932.29,1147.87
9.52,2.65,1.35,-0.08,0.07,0.01,943.4,1149.02
9.52,2.68,1.35,-0.09,0.08,0.02,872.79,1050.54
9.51,2.52,1.38,-0.11,0.06,0.02,877.71,1063.12
9.54,2.58,1.35,-0.1,0.04,0.03,841.34,1008.65
9.82,2.64,1.28,-0.09,0.06,0.03,825.62,1001.08
10.28,2.42,1.38,-0.07,-0.0,-0.06,839.11,1021.83
10.22,2.67,1.5,0.03,-0.1,-0.17,913.21,1079.92
12.76,3.16,0.81,-0.12,-0.08,-1.1,958.65,1187.96
10.7,4.24,0.76,-0.33,-0.49,-2.14,856.47,971.64
9.17,5.2,0.18,-0.69,-0.2,-2.77,798.72,1039.39
5.29,5.82,1.26,-1.1,-1.12,-3.37,979.68,1205.64
0.68,6.49,1.59,-1.38,-0.91,-3.49,1486.3,1674.96
-4.27,8.34,4.29,-0.04,0.18,0.27,1134.86,1322.27
-3.82,8.47,3.99,0.32,0.48,1.25,1189.83,1364.1
-2.2,7.08,3.97,1.03,0.9,2.09,1585.07,1726.36
0.57,8.32,0.95,1.14,0.78,2.73,1445.46,1558.96
2.5,8.08,-0.22,0.55,0.47,2.93,1515.65,1614.34
5.55,6.63,1.09,0.22,0.62,2.93,1297.46,1402.2
9.93,4.89,0.13,0.23,0.71,2.58,813.75,920.68
11.26,3.25,0.37,-0.07,0.29,1.7,655.9,727.28
11.26,2.62,0.79,-0.14,-0.07,0.93,581.89,674.74
11.07,2.25,1.36,-0.17,0.3,0.24,624.96,723.48
10.14,2.58,0.95,-0.0,0.02,0.04,575.25,675.45
10.09,2.56,1.03,-0.09,0.02,0.03,623.56,718.46
9.79,2.4,1.04,-0.07,-0.05,0.02,558.34,647.14
9.85,2.36,1.1,-0.05,0.02,-0.03,570.87,671.15
9.67,2.51,1.1,-0.07,0.06,-0.01,517.31,617.28
9.62,2.54,1.19,-0.07,0.05,0.01,559.7,654.92
9.62,2.46,1.24,-0.07,0.03,0.01,557.69,662.03
9.6,2.55,1.25,-0.07,0.06,0.02,521.7,639.3
9.72,2.6,1.28,-0.06,0.07,0.01,556.7,662.81
9.64,2.53,1.25,-0.09,0.02,0.03,550.56,664.5
9.72,2.51,1.45,-0.05,0.0,0.01,553.27,670.51
12.21,2.64,1.01,-0.03,0.05,-0.36,601.25,761.52
11.8,3.39,0.68,-0.02,-0.54,-1.27,652.02,819.11
9.56,4.35,0.6,-0.35,-0.35,-2.01,808.22,1109.52
7.91,5.17,0.72,-0.69,-0.28,-2.42,1264.37,1589.29
-1.67,4.53,3.86,-1.37,-0.8,-3.22,1563.99,1764.7
-6.51,6.9,4.94,-0.34,0.47,-1.43,1046.05,1201.32
-5.71,7.86,4.72,0.08,-0.03,0.53,829.56,918.53
-3.26,8.01,4.19,0.51,0.52,1.05,560.02,645.09
-3.04,7.78,4.07,1.21,1.01,1.66,467.14,555.93
-1.47,8.74,1.35,1.29,1.21,2.27,401.03,473.13
0.97,9.33,-1.44,0.84,0.9,2.62,376.97,428.22
4.43,7.49,-0.87,0.55,0.16,2.86,326.01,391.84
7.73,5.8,-1.72,0.2,0.32,2.9,386.45,526.85
10.52,4.03,-1.4,-0.49,0.9,2.33,513.85,680.36
12.4,2.46,0.14,-0.53,0.46,1.23,716.1,977.11
10.34,2.2,1.27,-0.47,0.36,0.25,613.19,733.76
9.72,2.6,0.57,0.0,0.22,0.06,496.04,591.19
9.88,2.45,1.21,-0.08,0.01,0.02,442.22,512.62
9.64,2.51,0.91,-0.11,0.01,0.03,473.17,558.76
9.86,2.52,0.96,-0.09,0.07,-0.01,509.84,592.95
9.68,2.61,0.82,-0.1,0.07,-0.0,569.37,699.72
9.83,2.66,0.94,-0.11,0.05,0.03,532.18,618.04
9.57,2.5,1.13,-0.07,0.14,0.02,509.76,617.68
9.71,2.52,1.01,-0.08,0.13,0.02,518.71,645.58
9.79,2.61,1.21,-0.09,0.11,-0.02,516.3,591.39
10.19,2.55,1.2,-0.07,-0.1,-0.03,508.36,590.92
10.41,2.6,1.78,-0.08,0.11,-0.27,545.65,627.28
11.31,3.09,0.57,-0.0,-0.09,-0.74,774.63,1051.41
9.87,3.8,0.69,-0.24,0.22,-1.09,680.71,895.04
9.74,4.56,1.13,-0.36,-0.1,-1.52,859.83,1116.48
9.02,5.37,0.44,-0.48,-0.17,-2.07,1655.25,1909.9
1.21,7.26,2.16,-1.08,-0.68,-3.11,1493.92,1644.35
-3.88,5.17,4.28,-0.77,0.19,-2.47,1288.64,1446.68
-5.13,8.04,3.76,-0.41,-0.07,-0.99,1169.12,1285.62
-5.51,8.06,4.43,-0.12,0.04,0.23,889.85,960.77
-4.79,7.45,4.46,0.18,0.55,0.93,660.1,701.19
-3.61,7.23,4.35,0.55,0.39,1.77,458.49,511.94
-0.23,7.75,3.12,0.98,-0.17,2.23,314.76,388.58
1.91,8.63,1.23,1.17,0.11,2.04,0.0,347.4
3.42,7.45,0.43,1.24,-0.14,1.99,459.63,664.65
4.57,7.1,-0.4,1.02,0.02,2.03,457.96,620.56
7.14,6.67,-1.74,0.56,0.92,2.11,511.02,691.63
9.75,4.87,-1.51,-0.09,0.79,2.0,415.15,528.42
11.61,3.16,-0.13,-0.18,0.75,1.63,485.66,630.07
11.61,2.59,0.75,-0.43,0.5,0.41,453.9,570.77
9.27,2.55,2.15,-0.11,0.19,0.01,348.16,429.82
9.37,2.78,1.23,-0.11,0.07,-0.02,381.43,464.7
9.54,2.87,1.06,-0.06,0.05,0.0,383.89,472.94
9.45,2.85,1.33,-0.08,0.03,0.03,435.33,563.25
9.65,2.94,1.13,-0.09,0.08,0.02,493.88,565.62
9.42,2.85,1.4,-0.11,0.07,0.02,443.7,536.55
9.29,2.89,1.54,-0.1,0.13,0.02,488.47,576.64
9.43,2.79,1.7,-0.1,0.2,0.01,484.18,597.25
9.44,2.98,1.52,-0.12,0.24,0.01,530.48,643.83
9.5,3.0,1.64,-0.04,0.17,-0.04,464.82,544.38
9.38,3.05,1.04,-0.14,-0.03,0.1,519.77,592.77
9.89,2.73,1.78,-0.09,-0.15,0.01,638.81,819.13
12.16,2.94,0.96,-0.1,-0.53,-0.77,644.3,847.94
10.5,3.66,0.23,-0.33,0.24,-1.89,867.41,1148.92
10.06,4.89,-0.09,-0.66,-0.32,-2.53,958.58,1213.05
6.63,5.99,0.54,-0.97,-0.48,-2.99,1979.22,2114.62
-1.65,6.35,2.86,-1.17,-0.3,-3.05,1237.04,1411.69
-5.6,7.35,4.73,-0.3,-0.05,-0.47,1086.81,1168.56
-5.59,7.66,4.93,-0.09,0.26,0.34,836.9,890.51
-4.47,7.17,4.41,0.26,0.61,1.45,519.54,581.3
-3.01,7.74,4.0,0.56,0.74,2.35,396.02,452.06
0.01,7.93,3.05,0.84,0.28,2.91,343.07,392.59
2.83,7.51,2.01,0.85,0.5,2.95,358.01,413.55
6.36,6.11,0.76,0.79,0.4,2.86,427.58,582.18
9.92,4.49,0.01,0.5,0.14,2.38,411.88,520.83
10.75,3.35,0.22,0.24,0.29,1.67,379.34,461.04
11.76,3.01,0.2,-0.21,0.04,0.89,373.3,456.27
10.59,2.56,1.39,-0.11,0.18,0.33,399.33,521.41
10.12,2.42,0.86,-0.06,0.08,0.12,427.67,531.1
9.74,2.29,1.18,-0.13,-0.02,0.06,393.74,479.86
9.42,2.43,1.42,-0.06,-0.01,0.01,375.1,459.0
9.5,2.37,1.23,-0.05,-0.02,0.02,382.16,450.38
9.49,2.44,1.39,-0.08,0.07,0.01,377.68,454.63
9.52,2.42,1.36,-0.1,0.09,-0.01,380.4,475.32
9.5,2.37,1.37,-0.1,0.06,0.02,372.1,447.0
9.43,2.57,1.47,-0.06,0.09,0.02,425.08,530.79
9.78,2.53,1.47,-0.08,0.07,0.02,410.97,495.6
10.45,2.52,1.35,-0.1,-0.02,-0.11,382.6,483.2
13.05,2.84,0.81,-0.18,-0.07,-0.78,495.49,634.31
11.44,3.79,1.16,-0.23,-0.54,-1.62,718.6,977.73
9.57,4.61,0.36,-0.43,-0.4,-2.18,704.16,960.95
8.31,6.14,-0.16,-0.89,-0.52,-2.79,820.24,1095.82
3.77,5.49,1.68,-1.07,-0.62,-3.34,1793.61,2035.3
-5.88,8.26,4.25,-0.32,0.22,-0.71,1005.28,1126.12
-4.42,8.38,4.0,-0.08,0.02,0.33,745.85,829.95
-4.75,7.48,4.03,0.25,0.43,1.37,552.36,626.06
-2.06,8.06,3.13,0.55,0.24,2.41,427.81,498.98
0.9,7.63,2.54,0.7,0.23,2.73,1288.08,1680.63
4.34,7.72,1.73,0.73,0.22,2.83,601.51,661.84
7.46,6.56,0.77,0.61,0.23,2.52,543.34,586.21
8.96,5.1,1.09,0.38,0.72,2.21,381.2,431.04
8.95,3.54,0.99,0.24,0.4,1.75,379.16,491.12
11.33,2.34,1.04,0.06,-0.06,1.39,472.63,629.06
13.42,1.96,1.06,-0.06,0.14,0.16,434.29,551.8
8.92,2.47,1.3,-0.08,-0.08,0.08,446.73,552.07
10.33,1.96,1.09,-0.09,0.06,-0.01,401.66,490.45
9.74,2.03,1.37,-0.11,0.04,-0.01,445.32,634.83
9.7,2.24,1.29,-0.03,0.0,-0.04,369.13,444.13
9.74,2.42,1.12,-0.05,0.03,-0.0,422.64,551.15
9.64,2.17,1.3,-0.1,0.05,-0.01,442.04,556.85
9.75,2.43,1.4,-0.06,0.02,-0.01,460.27,549.16
9.61,2.39,1.39,-0.07,0.05,-0.03,441.71,572.72
9.81,2.45,1.46,-0.09,0.07,-0.01,452.3,540.33
9.8,2.5,1.57,-0.1,-0.06,-0.09,423.04,497.23
10.28,2.72,1.33,-0.1,-0.15,-0.32,469.47,559.2
11.05,2.83,1.88,-0.14,-0.41,-1.02,595.52,816.93
10.34,3.84,0.45,-0.2,0.11,-1.86,609.83,739.44
9.53,4.98,-0.19,-0.6,-0.38,-2.47,733.04,1007.1
7.27,6.47,-0.28,-0.95,-0.34,-3.24,1456.66,1804.91
-4.19,6.64,3.78,-0.78,-0.91,-2.24,1018.37,1191.46
-6.9,7.75,4.6,-0.1,0.02,-0.35,956.24,1102.79
-4.69,7.41,3.88,0.16,0.54,0.33,625.46,693.67
-5.88,7.37,3.28,0.73,1.25,1.5,450.93,497.85
-3.7,8.61,1.62,1.06,0.85,2.46,357.75,437.68
-0.01,7.64,0.1,1.26,0.87,2.78,1542.97,2050.89
3.05,7.6,-1.74,1.17,0.56,3.07,2019.29,2158.29
6.66,6.03,-2.43,0.61,0.33,3.19,1495.88,1613.64
10.21,4.3,-3.38,0.04,1.26,2.76,1134.19,1302.35
12.46,2.53,-0.91,-0.6,1.08,1.79,1080.87,1181.4
12.47,2.11,0.04,-0.47,0.83,0.69,730.15,829.0
10.69,2.16,0.47,-0.4,0.31,0.17,636.42,797.86
9.54,1.8,1.57,-0.14,0.3,0.1,905.95,1209.89
9.66,1.65,1.15,-0.15,0.16,0.02,1596.87,1802.43
9.88,1.88,1.22,-0.1,0.08,0.01,913.26,1081.96
9.86,1.87,0.89,-0.1,0.12,0.01,841.71,977.05
9.88,1.84,1.19,-0.1,0.04,0.02,712.44,822.84
9.72,1.78,1.27,-0.13,0.07,0.03,535.51,636.59
10.0,1.75,1.37,-0.12,-0.03,-0.01,651.36,802.62
10.4,1.99,1.48,-0.13,0.07,-0.08,777.97,1011.48
12.79,2.01,1.04,-0.13,-0.68,-0.65,803.93,1063.72
11.05,2.58,1.72,-0.2,-0.19,-1.54,756.53,890.4
10.41,4.26,-0.58,-0.61,-0.53,-2.0,788.9,960.56
9.05,5.2,-0.32,-0.9,-0.63,-2.56,686.96,829.75
5.98,5.2,1.02,-1.26,-0.53,-3.5,1098.67,1451.44
-5.05,8.09,3.64,-0.25,-0.04,-0.74,1628.96,1776.37
-5.11,8.88,3.32,-0.05,-0.15,0.22,954.63,1132.47
-3.86,8.86,3.24,0.39,0.4,1.07,930.76,1035.38
-3.28,8.03,2.65,0.74,0.74,1.79,1673.89,1909.14
0.42,7.81,0.56,1.23,0.33,2.45,1601.29,1710.94
1.96,7.38,-0.67,1.35,-0.3,2.86,1359.74,1421.19
6.95,6.13,-1.87,1.26,0.12,2.8,809.8,895.77
9.38,4.2,-2.86,0.75,0.36,2.47,568.57,667.21
11.43,3.08,-3.54,0.07,1.33,2.01,677.45,796.39
11.63,1.72,0.35,-0.58,1.22,1.23,930.35,1280.95
11.44,1.19,1.42,-0.32,0.36,0.23,824.24,1080.05
9.47,1.63,0.66,-0.11,-0.06,0.12,796.76,975.01
9.25,1.48,1.24,-0.12,0.32,0.0,816.15,1017.32
10.04,1.36,1.05,-0.13,0.19,-0.02,845.77,1003.08
10.07,1.42,1.13,-0.12,0.0,0.04,1004.63,1240.64
9.79,1.5,1.19,-0.12,0.11,0.04,940.85,1129.47
10.01,1.33,1.32,-0.11,0.1,0.02,883.61,1038.72
10.0,1.59,1.25,-0.11,0.08,0.02,934.45,1193.46
9.73,1.42,1.46,-0.11,0.03,0.04,1193.35,1446.01
10.31,1.54,1.59,-0.12,0.03,-0.03,1355.45,1538.3
9.31,3.64,0.14,-0.65,-0.22,-2.45,1086.38,1296.04
8.49,5.38,0.16,-0.9,-0.78,-2.74,1268.95,1464.9
3.92,5.01,1.91,-1.02,-0.29,-3.17,1459.84,1579.74
1.79,5.97,2.39,-0.89,-0.5,-3.05,1381.47,1483.07
-3.38,5.92,2.94,-0.9,-0.04,-2.71,1326.93,1449.75
-5.4,7.29,3.98,-0.3,0.34,-1.18,1303.78,1462.33
-4.11,8.38,3.43,-0.1,-0.17,0.06,1412.6,1519.59
-3.37,8.29,3.3,-0.01,0.1,0.47,1143.45,1188.61
-4.73,7.63,3.88,0.32,0.48,1.37,706.26,935.72
-2.83,6.46,2.94,0.92,0.34,2.6,1560.89,1868.13
2.23,7.51,0.34,1.24,0.46,2.96,824.87,961.28
5.36,7.77,-0.77,0.71,0.57,2.92,731.33,875.14
7.91,6.1,0.37,0.03,1.35,2.71,1324.81,1616.57
10.22,4.48,0.41,-0.23,0.31,2.47,756.32,962.3
10.84,2.51,2.44,-0.2,0.56,1.55,646.77,721.36
12.32,2.08,1.02,0.04,0.21,0.68,568.6,650.39
11.13,2.32,1.01,-0.02,-0.15,0.06,576.71,649.99
8.23,2.32,1.67,-0.04,0.18,-0.0,464.39,558.84
9.46,2.06,1.55,-0.11,0.22,-0.05,473.37,581.07
9.6,2.3,1.31,-0.1,0.06,-0.01,570.03,666.97
9.73,2.38,1.34,-0.09,0.07,-0.03,508.52,584.79
9.67,2.39,1.3,-0.11,0.04,0.03,514.26,623.4
9.77,2.51,1.32,-0.18,0.08,0.02,518.28,619.47
10.18,2.26,1.56,-0.19,0.01,0.0,534.09,655.32
13.4,1.91,2.01,-0.1,-0.26,-0.85,634.93,784.77
12.46,2.97,0.69,-0.14,0.3,-2.1,778.45,1018.91
10.18,4.45,-0.14,-0.65,-0.08,-3.04,786.09,1069.89
5.14,5.19,1.47,-1.04,-0.48,-3.48,1452.06,1772.17
-4.74,7.33,4.64,-0.34,0.16,-0.6,1092.24,1259.64
-3.34,8.15,3.92,0.04,0.34,0.57,919.22,957.07
-2.27,7.27,3.88,0.13,0.3,1.62,564.85,611.24
-0.28,5.92,2.5,0.35,0.68,2.66,408.38,434.35
3.78,5.78,1.27,-0.12,-0.05,2.99,370.99,449.4
6.79,6.21,3.21,-0.97,0.63,1.81,0.0,377.56
10.46,7.11,3.47,-1.31,0.78,-0.54,331.36,393.81
5.49,3.9,6.56,-1.59,2.22,-3.42,470.07,602.23
-2.14,2.98,7.99,-2.08,1.27,-3.76,362.07,420.24
-4.93,0.1,9.34,-2.58,0.12,-3.04,0.0,315.21
-5.96,-2.87,11.04,-2.1,-0.52,-1.9,0.0,0.0
-3.79,-2.49,9.65,-1.18,-0.67,-0.59,0.0,0.0
-2.39,-2.68,8.25,-1.15,0.68,-0.22,0.0,0.0
-0.21,-3.2,8.15,0.05,1.75,-0.14,0.0,0.0
-2.06,-3.45,7.63,-0.23,0.02,-0.04,0.0,0.0
-2.31,-3.92,8.23,-0.17,0.0,-0.01,0.0,0.0
-2.73,-4.18,8.42,-0.09,0.11,-0.09,0.0,0.0
-1.63,-4.17,8.21,-0.1,0.1,-0.12,0.0,0.0
-2.01,-4.09,7.98,-0.18,0.1,-0.14,0.0,0.0
-2.14,-3.92,7.88,-0.18,0.13,-0.1,0.0,0.0
-2.22,-4.0,8.32,-0.2,0.06,0.03,0.0,0.0
-2.07,-4.77,7.73,-0.14,0.03,-0.01,0.0,0.0
-2.07,-4.72,7.62,-0.15,0.08,-0.04,0.0,0.0
-1.91,-4.57,7.78,-0.13,0.05,-0.02,0.0,0.0
