ax,ay,az,gx,gy,gz,mav,rms
2.31,-1.23,8.96,0.25,0.38,-0.04,1335.71,1779.32
2.0,-0.89,9.07,0.32,0.46,0.05,1000.54,1250.23
1.24,-0.28,9.2,0.35,0.37,0.34,930.71,1131.89
1.01,-0.12,9.52,0.51,0.36,0.47,1213.11,1471.56
1.07,0.4,9.21,0.67,0.55,0.65,1014.6,1189.34
-0.27,1.45,8.26,0.64,0.59,0.83,1471.65,1676.2
-0.14,2.45,8.15,0.29,0.57,0.97,1522.88,1672.8
-1.29,1.18,10.37,-0.13,0.29,1.19,1483.2,1603.91
-0.63,1.26,10.01,-0.12,0.05,1.25,1416.3,1542.43
0.14,1.39,10.91,-0.23,-0.95,1.39,1295.24,1439.39
1.72,0.86,10.74,0.01,-1.65,1.65,1535.93,1672.09
4.53,0.22,9.63,0.29,-2.15,1.47,1476.62,1557.37
7.61,-0.44,7.36,0.85,-2.18,0.46,762.85,859.35
7.67,0.34,5.29,1.16,-1.08,-0.39,580.96,655.37
7.88,2.78,3.54,1.26,-1.1,-0.82,482.29,539.57
8.05,3.94,4.55,1.01,-0.49,-0.59,482.23,676.63
9.88,4.1,1.64,1.22,-0.02,-1.26,463.54,563.97
6.42,5.5,-0.14,1.43,0.48,-2.71,1430.64,1872.73
2.7,7.53,-0.22,2.12,1.09,-2.99,1331.31,1624.53
-1.17,8.84,-0.4,2.07,0.95,-1.63,1211.61,1373.17
-2.5,9.55,-3.24,1.59,0.29,0.43,858.34,984.63
-0.19,8.98,-4.74,1.05,0.5,1.65,718.5,836.64
2.83,8.36,-6.48,0.48,1.43,2.23,660.5,791.38
4.16,6.0,-4.46,0.02,1.1,2.41,1097.5,1457.71
7.67,3.73,-3.39,-0.01,0.84,2.19,1170.17,1425.13
9.98,2.57,-3.98,-0.07,0.96,1.75,842.67,966.06
9.24,1.2,-3.46,-0.26,-0.32,1.6,646.83,720.03
8.86,-0.45,-4.03,-0.18,0.35,1.52,1215.34,1558.63
11.57,-1.74,-3.84,-0.3,0.38,0.7,1341.65,1635.45
10.61,-0.92,-1.97,-0.13,-0.46,-0.08,1416.56,1630.5
9.47,0.0,-2.82,-0.02,-0.29,-0.11,1214.71,1409.4
9.53,-0.22,-3.29,-0.02,0.07,0.07,1112.04,1210.58
10.76,-0.37,-3.15,-0.06,0.04,0.07,1063.37,1383.67
11.89,-0.37,-3.59,-0.18,-0.12,-0.41,1464.13,1694.59
12.85,0.32,-4.95,-0.52,-0.4,-1.32,1181.94,1365.63
11.51,1.51,-5.22,-1.04,-0.42,-2.25,1210.1,1390.01
7.69,3.59,-4.59,-1.73,-0.82,-2.59,1344.96,1536.55
4.07,4.64,-2.6,-1.74,-0.94,-2.4,1203.13,1367.84
3.16,6.17,-2.38,-1.59,-1.0,-1.5,1467.34,1620.74
3.26,8.52,-0.55,-1.57,-0.29,-1.85,1517.21,1612.19
1.06,8.49,2.22,-1.32,-0.2,-1.28,1272.29,1438.51
-0.75,9.1,2.53,-0.33,0.21,-0.22,1361.08,1514.59
0.33,9.92,1.57,0.15,0.46,0.09,1297.4,1428.94
-0.19,8.95,1.52,0.19,0.56,0.28,1232.59,1410.64
0.3,7.61,0.82,0.97,0.66,1.42,1381.24,1559.89
2.23,7.89,0.3,1.55,0.15,2.28,1420.3,1554.56
5.83,7.79,-1.83,1.54,1.14,2.28,1368.54,1491.84
7.42,5.83,-2.88,1.26,1.07,1.97,1034.1,1215.07
9.13,3.79,-3.5,0.86,0.55,1.93,1020.16,1164.79
9.99,2.51,-3.25,0.5,0.08,1.7,798.42,936.74
10.14,1.41,-3.39,0.39,0.4,1.49,740.12,823.51
11.09,-0.37,-3.33,0.24,0.27,1.25,653.06,781.38
11.43,-1.32,-2.99,0.26,-0.12,0.77,647.68,828.18
11.63,-1.48,-3.11,-0.02,0.04,0.16,587.54,789.49
9.84,-1.11,-2.11,-0.18,0.13,-0.17,589.99,705.78
10.1,-0.95,-2.31,-0.09,0.02,0.09,545.72,666.95
10.1,-0.95,-2.31,-0.09,0.02,0.09,544.97,732.07
10.5,-1.21,-2.52,-0.12,-0.01,-0.03,863.29,1216.66
11.03,-1.11,-2.7,-0.23,-0.12,-0.32,1875.26,2056.0
11.76,-0.73,-2.88,-0.26,-0.02,-1.06,1586.03,1680.55
12.21,1.05,-4.09,-0.62,-0.38,-1.53,1350.81,1428.87
11.52,1.74,-3.88,-1.14,-0.21,-2.2,1056.94,1104.27
9.29,3.35,-3.52,-1.4,-0.67,-2.59,715.59,772.11
7.75,6.42,-2.87,-1.64,-0.95,-2.36,2091.5,2284.83
4.59,6.25,0.22,-1.69,-0.55,-2.16,1465.52,1627.73
2.37,9.34,0.18,-1.25,-0.62,-1.54,1348.79,1513.29
-0.95,6.96,3.01,-1.1,-0.36,-1.58,1462.53,1569.09
-1.19,8.45,2.65,-0.28,0.14,-0.19,1471.02,1591.27
0.92,9.5,2.19,-0.03,0.53,0.16,1311.42,1440.8
-1.47,8.72,3.65,0.35,0.74,0.77,1145.17,1294.37
1.45,9.11,1.93,0.65,0.92,0.9,1218.12,1361.81
-0.43,6.96,2.39,1.36,-0.38,2.42,1095.39,1281.29
4.23,7.69,-0.11,1.63,1.3,2.53,1208.64,1387.34
8.41,7.02,-2.56,1.43,0.72,2.19,1439.18,1619.01
9.16,4.5,-3.09,0.89,0.18,1.79,1220.6,1401.77
9.61,2.72,-2.64,0.69,0.4,1.55,1107.42,1180.14
10.21,1.77,-3.48,0.5,0.16,1.39,915.03,989.95
10.64,0.51,-2.12,0.19,0.42,0.98,590.55,660.62
10.78,0.08,-1.69,0.15,0.2,0.71,502.38,585.25
11.61,-0.16,-2.25,0.02,0.13,0.1,397.41,520.27
10.23,-0.3,-1.96,-0.05,-0.04,-0.06,563.41,759.49
9.82,0.05,-2.11,-0.07,0.06,0.04,514.18,628.89
10.21,-0.07,-2.22,-0.1,0.1,0.0,407.69,486.57
10.91,-0.19,-2.21,-0.13,0.02,-0.15,656.6,897.81
11.88,0.25,-2.94,-0.33,-0.07,-0.72,626.81,746.21
12.52,1.16,-3.21,-0.64,0.08,-1.55,1031.22,1401.24
11.11,2.74,-3.18,-1.08,-0.24,-2.35,666.82,784.23
8.47,3.64,-2.61,-1.54,-0.67,-2.74,1012.95,1261.28
5.81,5.76,-1.54,-1.66,-1.23,-2.48,990.59,1270.91
3.25,7.56,0.71,-1.47,-0.84,-1.97,1148.44,1446.78
2.09,7.64,0.9,-1.14,-0.33,-1.64,1291.31,1516.37
-0.61,7.58,2.76,-1.11,-0.76,-1.22,1447.57,1639.37
0.14,9.01,3.73,-0.64,-0.05,-0.5,1359.71,1544.28
-0.93,8.73,4.6,-0.13,0.06,0.07,1279.21,1421.29
-0.59,9.15,3.8,-0.02,0.29,0.19,1316.09,1462.48
-0.42,8.91,3.76,0.22,0.23,0.49,1351.04,1517.86
0.84,7.86,3.12,0.65,0.5,0.8,1345.56,1501.4
2.99,8.5,1.41,1.17,0.12,1.68,1264.07,1418.66
3.46,6.95,1.23,1.36,0.51,2.23,1100.66,1237.07
6.63,6.73,-0.48,1.53,0.81,2.55,993.53,1160.78
9.53,4.97,-2.24,1.17,0.23,2.26,888.89,1004.84
10.35,3.42,-2.39,0.85,-0.03,1.66,633.23,725.78
9.56,2.19,-2.59,0.49,0.24,1.25,637.34,738.95
10.87,1.29,-2.91,0.26,-0.02,1.17,439.18,490.3
12.38,0.66,-2.52,-0.01,-0.01,0.54,367.23,406.33
11.33,0.73,-2.01,-0.1,0.03,-0.16,282.5,375.39
9.73,1.19,-1.82,-0.04,0.03,-0.14,325.36,445.54
10.04,0.94,-2.12,-0.05,-0.04,0.01,381.38,608.97
10.88,1.15,-2.62,-0.17,0.07,-0.2,707.31,1106.02
10.66,1.66,-2.54,-0.22,0.19,-0.42,640.49,912.91
10.99,2.2,-2.35,-0.25,0.21,-0.65,509.21,710.75
11.79,2.87,-2.86,-0.51,0.15,-1.22,613.81,800.72
11.42,4.49,-2.8,-0.96,-0.03,-1.93,1744.28,2018.19
7.97,5.32,-1.21,-1.32,-0.53,-2.46,1204.77,1453.13
4.91,5.7,-0.45,-1.56,-0.15,-2.74,1128.92,1309.74
2.11,6.89,1.47,-1.27,-0.27,-2.12,1112.69,1356.97
1.24,8.71,2.19,-1.07,-0.48,-1.61,1282.56,1495.01
0.07,8.16,3.08,-0.97,-0.62,-1.21,1437.74,1592.07
-1.02,8.5,3.29,-0.6,-0.42,-0.55,1362.89,1496.77
-1.09,8.69,4.18,-0.34,-0.15,-0.17,1215.37,1405.67
-0.85,8.79,3.68,-0.14,0.07,0.01,1258.87,1412.27
-0.36,8.85,3.36,-0.06,0.23,0.05,1246.17,1398.44
-1.21,8.59,3.99,0.25,0.08,0.58,1273.18,1437.6
-1.53,7.53,3.84,0.92,0.1,1.76,1344.14,1483.52
0.08,8.65,2.64,1.28,0.11,2.36,1189.41,1358.96
2.56,6.89,1.86,1.29,1.17,2.41,1006.47,1165.68
7.19,5.52,0.17,1.43,0.84,2.37,1194.63,1348.88
9.06,4.46,-2.14,1.19,-0.14,2.12,1194.51,1348.02
10.25,3.74,-2.63,0.67,0.64,1.58,890.47,1047.02
10.95,3.08,-1.92,0.23,0.34,0.98,834.18,954.73
12.04,2.33,-2.03,0.07,-0.22,0.48,831.3,1022.53
10.4,2.01,-1.33,-0.02,-0.03,-0.08,668.86,810.17
9.22,2.58,-1.67,-0.1,0.02,-0.16,515.01,606.03
9.24,2.53,-1.94,-0.03,0.01,0.03,396.71,487.31
9.92,2.35,-1.63,-0.1,0.06,0.01,341.79,414.24
9.85,2.49,-1.91,-0.18,0.05,-0.05,415.05,606.38
10.06,2.72,-2.26,-0.15,0.12,-0.09,499.44,820.44
11.77,2.83,-2.7,-0.26,0.21,-0.58,583.89,855.18
11.72,3.65,-3.68,-0.73,0.03,-1.46,706.16,976.46
10.23,4.4,-1.91,-1.17,-0.17,-2.3,1425.77,1754.43
6.22,5.9,-0.29,-1.13,0.33,-2.56,1152.61,1432.71
3.37,7.02,1.27,-1.03,-0.01,-2.45,1059.41,1248.7
0.77,7.36,2.41,-1.07,-0.18,-2.38,1227.9,1448.9
-0.32,8.78,1.37,-0.78,-0.1,-1.59,1283.05,1481.01
-2.14,8.5,2.81,-0.53,0.02,-0.98,1447.2,1599.78
-1.98,9.16,2.97,-0.26,-0.07,-0.33,1376.72,1543.31
-2.24,8.9,3.12,-0.13,-0.16,0.06,1305.89,1462.17
-2.07,8.96,3.14,-0.06,0.15,0.11,1358.95,1508.55
-2.1,8.65,3.32,-0.03,0.12,0.16,1305.57,1458.99
-3.03,8.4,3.73,0.33,0.05,0.95,1329.58,1473.84
-1.96,8.32,3.51,0.91,0.03,1.98,1287.63,1428.62
0.65,7.23,1.8,1.32,0.23,2.73,1244.54,1386.08
4.38,6.15,-0.22,1.22,0.35,3.16,1215.09,1346.06
9.62,5.22,-1.84,1.09,0.34,2.91,1034.88,1197.72
11.27,3.05,-1.17,0.68,0.4,1.78,981.26,1199.0
10.72,2.49,-1.44,0.55,-0.1,1.01,866.73,994.52
10.25,2.19,-1.81,0.22,0.02,0.56,849.59,1031.76
10.25,2.19,-1.81,0.22,0.02,0.56,749.92,894.49
10.75,2.4,-2.18,0.01,-0.02,0.26,650.17,743.82
10.47,2.17,-1.58,-0.13,0.27,-0.12,532.26,663.45
9.52,2.15,-1.2,-0.12,0.22,-0.05,482.17,543.72
10.47,2.12,-1.42,-0.1,0.07,0.06,381.69,513.34
10.1,2.09,-1.45,-0.07,0.05,0.04,314.1,358.65
10.1,2.33,-1.54,-0.06,0.04,0.03,278.87,353.1
9.93,2.31,-1.54,-0.08,0.13,-0.0,290.62,369.44
10.65,2.28,-1.68,-0.09,-0.05,-0.1,946.55,1419.86
11.24,2.42,-1.84,-0.22,0.07,-0.53,587.37,902.39
11.89,3.48,-2.87,-0.69,-0.29,-1.4,1396.94,1760.12
10.06,4.11,-2.04,-1.26,-0.08,-2.2,1093.17,1396.79
7.25,6.05,-0.82,-1.39,-0.24,-2.46,998.36,1219.59
3.33,6.33,1.94,-0.88,0.0,-2.2,1171.74,1427.18
1.39,7.69,1.36,-0.71,-0.42,-2.22,1413.25,1617.24
0.28,8.32,1.55,-0.97,-0.29,-2.08,1316.65,1498.84
-2.35,7.66,3.03,-0.68,-0.21,-1.59,1313.85,1482.83
-3.24,8.5,3.64,-0.38,-0.15,-0.64,1392.91,1535.08
-3.94,8.84,3.79,-0.16,-0.07,-0.03,1153.4,1325.21
-2.72,8.86,2.91,-0.0,-0.04,0.23,1195.36,1362.9
-1.6,8.39,3.36,-0.04,0.12,0.22,1256.18,1402.84
-2.83,8.2,3.85,0.37,0.33,0.92,1319.73,1473.81
-1.51,7.75,3.26,0.99,0.45,1.87,1400.12,1513.55
-0.06,8.65,1.99,1.36,-0.02,2.55,1243.64,1388.35
3.6,7.5,0.11,1.34,1.17,2.57,1300.84,1435.29
6.42,6.56,-1.41,1.07,0.38,2.48,1133.78,1300.06
8.24,4.08,-1.88,0.86,0.31,2.42,1097.33,1301.84
10.7,2.25,-2.11,0.59,0.23,2.09,1059.42,1164.32
10.45,0.56,-1.37,0.46,-0.02,1.48,717.27,797.74
10.82,0.1,-1.92,0.29,-0.35,1.13,830.98,1028.3
11.56,-0.49,-2.43,-0.01,0.37,0.34,538.88,605.99
10.19,-0.12,-1.81,-0.07,0.06,-0.09,406.29,472.76
9.97,0.03,-2.2,-0.1,-0.08,-0.02,428.77,533.62
10.17,-0.01,-2.22,-0.13,-0.08,0.0,359.74,417.42
10.09,-0.14,-1.77,-0.12,0.01,0.01,337.91,422.62
10.24,0.15,-1.94,-0.12,0.04,0.02,294.93,349.34
11.07,0.09,-2.04,-0.14,0.02,-0.14,598.69,877.86
11.52,0.52,-1.99,-0.25,0.09,-0.69,550.07,745.94
12.22,1.21,-2.6,-0.52,-0.04,-1.34,556.27,739.71
10.71,2.29,-2.42,-0.93,-0.05,-2.04,666.5,844.56
9.0,3.96,-2.09,-1.12,-0.51,-2.45,1291.68,1670.97
6.74,5.63,-1.09,-1.14,-0.5,-2.37,1563.96,1826.04
4.48,7.23,-0.7,-1.38,-0.64,-2.27,1182.88,1359.77
2.25,7.89,1.49,-1.19,0.11,-1.7,1134.84,1361.57
2.63,10.3,1.71,-1.07,-0.44,-1.69,1398.32,1579.98
-0.79,8.51,3.1,-0.6,-0.51,-1.06,1370.75,1548.46
-1.79,9.24,2.94,-0.14,0.16,-0.28,1320.13,1468.12
-1.55,9.15,2.55,0.0,0.21,-0.03,1339.52,1513.49
-1.82,8.88,2.74,-0.12,0.03,0.07,1169.47,1312.17
-2.18,8.83,3.33,0.1,0.15,0.4,1325.88,1484.29
-1.59,8.43,3.4,0.82,0.23,1.57,1289.59,1456.86
0.3,7.91,1.86,1.42,0.24,2.7,1426.32,1557.41
4.54,6.91,0.09,1.27,0.55,2.82,1319.05,1479.12
7.42,6.22,-1.14,0.99,0.78,2.46,1118.05,1270.7
9.7,4.63,-1.96,0.69,-0.01,1.93,1063.33,1200.14
9.67,3.27,-1.95,0.47,0.12,1.54,1018.31,1151.13
10.83,2.51,-2.61,0.47,0.23,1.26,822.46,891.55
10.97,1.02,-1.57,0.22,-0.28,1.08,639.51,677.14
11.43,0.49,-2.35,0.13,0.1,0.64,465.03,550.1
11.86,0.43,-2.13,-0.05,-0.01,0.0,318.32,350.99
9.4,0.78,-1.42,-0.06,-0.04,-0.16,243.86,347.85
9.46,0.58,-1.66,-0.01,0.1,0.06,185.59,229.63
10.32,0.66,-1.87,-0.08,0.15,0.05,220.34,255.25
9.9,0.61,-1.49,-0.09,0.08,-0.04,260.06,363.55
9.96,0.75,-1.65,-0.04,0.02,-0.03,378.2,574.0
11.08,0.73,-1.96,-0.14,-0.1,-0.26,662.22,1119.3
12.61,1.13,-2.59,-0.39,0.08,-0.92,518.52,723.77
11.67,1.97,-2.4,-0.69,0.05,-1.82,603.51,828.55
10.21,3.83,-2.31,-1.12,-0.28,-2.33,1215.75,1653.56
7.74,5.34,-1.27,-1.36,-0.14,-2.59,1314.75,1653.72
4.06,5.91,0.3,-1.4,-0.57,-2.47,898.11,1089.09
2.6,7.37,1.24,-1.27,-0.25,-2.19,1058.46,1318.8
0.13,7.81,2.36,-1.16,-0.14,-1.89,1134.2,1362.63
-1.48,8.07,4.23,-1.0,-0.26,-1.56,1287.55,1494.95
-1.5,7.99,4.65,-0.4,0.03,-0.47,1341.96,1529.27
-2.45,9.08,4.37,-0.08,0.17,0.02,1333.57,1487.69
-1.6,8.53,3.99,0.05,0.1,0.19,1432.29,1586.06
-1.66,8.56,3.56,0.07,0.15,0.24,1330.2,1479.89
-2.2,6.95,4.15,0.93,0.53,1.61,1208.71,1358.42
-0.97,7.41,2.95,1.48,1.01,2.7,1199.43,1330.07
4.13,6.03,0.92,1.4,1.23,3.18,1254.44,1394.29
8.48,5.71,-0.88,1.25,-0.03,3.08,1160.51,1330.96
10.98,4.49,-2.09,0.75,0.33,2.09,1055.87,1251.1
10.18,2.81,-1.33,0.35,0.11,1.57,1085.69,1254.87
11.42,1.93,-1.78,0.13,-0.0,1.08,962.99,1028.89
11.28,1.38,-1.24,0.03,0.17,0.52,766.18,845.29
10.52,1.43,-1.4,-0.02,-0.01,0.2,517.16,551.09
10.41,1.35,-1.13,-0.01,0.11,0.07,369.79,406.2
9.99,1.26,-1.26,-0.08,0.09,-0.02,288.25,346.55
9.89,1.28,-1.2,-0.09,0.09,0.03,265.15,402.06
10.3,1.28,-1.27,-0.05,0.05,0.04,190.21,217.91
10.37,1.22,-1.3,-0.04,0.04,0.01,276.97,408.82
10.09,1.18,-0.67,-0.06,-0.02,-0.06,394.69,659.55
11.89,1.33,-1.48,-0.09,-0.3,-0.42,457.76,626.47
12.88,2.11,-2.29,-0.39,0.03,-1.43,489.91,797.89
11.5,3.18,-2.1,-0.99,-0.28,-2.32,460.19,642.85
9.03,4.78,-1.57,-1.52,-0.35,-2.81,1633.69,2024.85
4.46,6.03,0.17,-1.6,-0.62,-2.89,1157.89,1458.07
2.74,7.52,1.32,-1.29,-0.75,-2.15,1043.97,1246.56
1.03,8.4,1.98,-1.17,-0.34,-1.93,876.75,1075.81
-1.3,8.03,3.34,-0.81,-0.19,-1.14,1366.7,1637.23
-1.3,8.03,3.34,-0.81,-0.19,-1.14,1361.14,1549.68
-1.83,8.7,4.08,-0.43,-0.17,-0.47,1370.72,1544.19
-1.8,8.99,3.99,-0.07,0.07,0.02,1360.47,1513.23
-1.55,9.0,3.51,-0.06,0.01,0.11,1424.13,1559.71
-0.79,8.58,3.55,-0.09,0.0,0.07,1400.64,1516.53
-2.05,8.42,4.14,0.18,0.21,0.44,1122.52,1255.41
-2.4,8.09,4.63,1.12,0.48,1.8,1042.9,1152.12
-0.13,6.11,3.56,1.56,0.68,2.87,1035.69,1159.48
4.71,7.02,0.73,1.49,1.1,3.32,840.31,969.11
8.36,5.04,-1.54,1.06,0.46,3.21,756.61,914.42
11.22,2.47,-1.48,0.65,0.42,2.34,585.97,681.97
11.46,1.96,-1.14,0.26,0.16,1.35,655.4,761.04
10.86,1.45,-1.02,0.15,-0.39,0.91,482.0,515.61
10.94,0.93,-0.97,0.08,0.06,0.36,318.75,353.26
10.91,1.04,-1.21,0.0,0.13,0.01,246.73,277.16
10.06,1.0,-0.88,-0.06,0.03,-0.02,200.41,237.64
10.3,1.02,-0.95,-0.06,0.04,-0.0,185.89,249.34
10.17,1.04,-1.14,-0.08,-0.04,0.03,181.43,210.55
9.91,0.98,-0.9,-0.1,0.04,0.02,171.67,227.69
10.23,1.02,-0.96,-0.09,0.01,0.03,286.44,481.65
11.1,0.99,-0.76,-0.05,-0.23,0.01,407.58,539.81
11.56,0.94,-1.74,-0.13,-0.26,-0.5,427.21,579.12
14.26,1.68,-3.41,-0.59,-0.16,-1.61,615.47,869.14
11.88,3.02,-3.26,-1.21,0.12,-2.83,1234.68,1667.96
6.73,4.3,-0.98,-1.65,-0.19,-3.31,1753.03,1966.71
2.41,5.94,0.19,-1.8,-0.76,-3.09,1248.75,1408.76
1.17,7.94,1.6,-1.5,-0.39,-2.24,1016.78,1186.81
-1.27,7.41,3.82,-1.04,-0.15,-1.73,1474.37,1664.99
-2.24,7.98,4.28,-0.53,-0.01,-0.82,1324.85,1496.62
-2.48,7.93,4.66,-0.2,0.07,-0.26,1372.5,1520.8
-2.3,8.15,4.13,-0.17,-0.1,0.0,1339.55,1468.1
-1.9,8.37,4.24,-0.08,-0.01,0.16,1448.13,1557.29
-3.35,7.73,5.24,0.34,-0.18,1.01,1246.74,1375.24
-2.21,7.14,4.86,1.2,0.9,2.12,1106.0,1225.51
0.01,6.77,3.11,1.83,0.67,3.36,932.18,1077.61
5.77,5.52,0.93,1.86,1.23,3.67,752.65,968.72
11.56,3.86,-1.5,1.17,0.88,3.15,841.68,955.54
11.18,1.69,-0.68,0.56,0.12,2.03,644.21,715.39
12.16,1.5,-1.89,0.08,-0.32,1.15,464.38,511.61
11.42,0.95,-0.52,-0.07,-0.22,0.36,400.56,441.8
10.45,1.01,-1.15,-0.01,0.28,-0.13,344.72,429.32
10.18,1.16,-1.38,-0.02,0.02,0.0,267.76,318.11
10.54,1.25,-1.3,-0.1,-0.01,0.04,241.96,328.46
10.13,1.24,-0.87,-0.09,0.11,-0.02,236.5,326.75
9.98,1.41,-1.09,-0.11,0.15,-0.0,226.53,283.77
10.15,1.21,-0.86,-0.07,0.03,0.08,259.2,349.64
11.0,1.33,-0.96,-0.1,-0.03,0.04,406.01,652.3
11.68,1.21,-1.4,-0.14,-0.19,-0.43,585.03,854.33
13.56,1.58,-2.53,-0.54,0.12,-1.78,466.72,557.94
10.14,3.65,-2.01,-1.03,-0.7,-2.37,897.19,1253.64
7.23,4.59,-2.7,-1.57,0.38,-2.68,1485.07,1845.76
4.92,5.46,-0.32,-1.91,-1.07,-2.61,1167.55,1401.36
2.47,7.32,2.53,-1.58,-0.14,-2.39,959.45,1159.93
-0.17,7.19,4.07,-0.96,0.27,-2.02,1438.76,1646.94
-1.17,7.72,3.96,-0.63,0.14,-1.3,1255.6,1480.58
-1.7,8.52,4.56,-0.31,-0.08,-0.4,1365.62,1545.72
-1.91,8.83,4.27,-0.08,0.15,0.07,1257.51,1412.19
-1.45,8.42,4.17,0.11,0.13,0.47,1387.81,1539.32
-0.83,7.95,3.9,0.53,0.54,1.01,1136.21,1283.56
-0.82,8.56,3.72,1.2,0.52,2.1,1033.97,1135.07
2.52,7.69,2.26,1.52,0.45,2.57,1039.71,1157.87
5.07,6.13,0.44,1.71,0.16,2.79,1129.89,1331.9
8.09,5.01,-1.71,1.36,0.51,2.72,1098.69,1248.55
10.52,3.21,-2.63,0.75,0.44,2.22,921.6,1026.16
11.26,2.25,-1.92,0.37,0.04,1.73,807.36,869.0
13.58,1.15,-2.24,-0.01,0.08,0.62,567.83,646.05
11.04,1.31,-1.43,-0.06,0.17,-0.14,449.5,491.84
9.59,1.52,-1.48,-0.06,-0.04,0.03,363.69,400.07
10.0,1.45,-1.34,-0.13,0.12,0.06,330.48,453.88
10.11,1.47,-1.14,-0.11,0.09,-0.02,232.84,268.39
9.91,1.47,-1.07,-0.1,0.11,0.01,241.87,286.63
10.25,1.51,-1.19,-0.06,0.07,0.0,227.56,283.21
10.96,1.46,-0.85,-0.14,-0.03,-0.12,490.12,636.49
13.57,1.67,-1.82,-0.24,-0.18,-1.12,377.12,497.64
11.88,2.96,-2.07,-0.7,-0.01,-2.29,436.79,620.92
9.01,4.04,-2.62,-1.54,-0.11,-2.92,1156.61,1586.83
5.4,5.52,0.16,-1.63,-0.59,-3.01,1228.55,1543.93
0.5,6.9,2.66,-1.01,-0.07,-2.52,1093.49,1335.75
-1.04,6.99,3.02,-1.34,-0.5,-2.39,991.21,1210.34
-2.42,7.51,4.09,-0.88,-0.29,-1.29,1361.66,1628.13
-2.61,7.89,4.87,-0.48,-0.11,-0.5,1386.63,1579.48
-1.9,9.13,4.17,-0.17,0.05,-0.08,1274.22,1424.76
-2.39,8.52,4.58,-0.02,-0.17,0.27,1150.71,1313.74
-2.67,7.63,4.98,0.45,0.26,1.01,1070.33,1222.74
-2.55,7.66,4.6,1.04,0.6,1.96,1072.96,1241.29
2.22,8.1,1.53,1.46,0.43,2.75,944.25,1059.48
4.59,7.0,0.62,1.3,0.14,2.87,787.67,891.91
7.31,5.58,-0.22,1.18,0.87,2.87,890.38,1053.6
10.72,3.01,-1.11,0.8,0.55,2.27,704.16,849.24
11.21,2.43,-1.09,0.4,0.14,1.39,620.98,682.72
10.82,2.34,-1.42,0.26,0.33,0.65,499.63,572.17
11.06,2.16,-0.92,-0.03,-0.25,0.34,410.46,454.16
10.04,1.86,-0.66,-0.05,0.04,0.02,448.35,624.87
9.81,1.94,-0.63,-0.12,0.19,0.01,373.92,510.07
9.85,1.93,-0.47,-0.1,0.06,0.07,226.21,262.84
10.3,1.89,-0.92,-0.1,0.03,0.04,269.67,357.44
10.11,1.97,-0.77,-0.13,0.06,-0.03,285.17,422.53
10.29,1.94,-0.41,-0.12,-0.04,-0.03,524.84,853.23
12.72,2.08,-1.5,-0.19,-0.11,-0.71,798.53,1246.2
12.67,2.65,-1.85,-0.71,0.15,-2.03,584.18,799.35
9.05,4.3,-1.3,-1.18,-0.32,-2.52,764.77,1041.93
6.56,5.77,-0.83,-1.33,-0.23,-2.65,1329.04,1625.2
6.56,5.77,-0.83,-1.33,-0.23,-2.65,1187.72,1430.53
3.51,6.2,1.32,-1.37,-0.5,-2.59,880.28,1040.82
0.24,7.36,2.67,-1.0,-0.7,-2.01,1174.52,1434.17
0.01,9.26,2.51,-1.11,-0.2,-1.82,1329.43,1530.26
-2.07,7.75,4.57,-0.83,-0.15,-1.37,1291.68,1532.35
-3.61,8.31,4.92,-0.33,-0.17,-0.38,1335.37,1506.94
-3.05,8.18,4.98,-0.22,0.26,-0.21,1255.33,1419.48
-2.31,8.34,4.47,-0.06,0.27,0.1,1305.74,1447.56
-1.91,7.93,4.22,-0.05,0.03,0.14,1231.82,1379.28
-2.86,7.67,4.69,0.41,0.4,0.79,1023.39,1171.38
-3.02,6.7,4.82,1.19,0.09,2.15,1035.7,1189.85
0.86,6.76,2.58,1.75,0.93,2.88,961.31,1094.65
4.3,6.62,0.72,1.69,0.68,3.17,840.63,933.66
8.89,6.46,-1.81,1.01,0.35,2.95,820.32,1000.52
11.58,4.13,-0.57,0.48,1.08,1.94,609.86,666.64
10.42,3.23,-0.38,0.17,-0.19,1.08,467.03,503.78
11.07,2.94,-1.04,0.05,-0.19,0.57,441.28,539.74
10.01,2.87,-0.59,0.07,0.13,0.2,333.49,375.52
10.37,2.96,-0.91,-0.0,0.03,0.15,253.21,316.5
9.96,2.59,-0.55,-0.09,0.06,0.03,313.76,483.83
9.73,2.77,-0.82,-0.06,0.04,0.05,154.47,177.58
9.71,2.67,-0.6,-0.12,0.13,0.03,178.69,240.37
9.96,2.7,-0.74,-0.1,0.04,0.03,548.26,888.78
10.66,2.65,-0.86,-0.16,0.01,-0.23,540.16,806.69
12.03,3.02,-1.14,-0.31,-0.05,-0.86,469.91,614.62
10.34,3.81,-1.08,-0.63,-0.1,-1.6,792.7,1119.91
9.95,5.37,-0.9,-1.06,-0.17,-2.28,901.77,1169.11
6.5,6.41,-0.37,-1.32,-0.61,-2.66,1095.13,1354.81
3.82,7.36,0.69,-1.55,-0.8,-2.65,1264.21,1518.02
1.22,7.35,2.18,-1.26,-0.47,-2.11,1211.19,1447.11
0.01,8.42,3.22,-1.07,-0.48,-1.69,1296.39,1492.34
-2.24,7.36,5.04,-0.73,-0.35,-1.01,1367.47,1548.11
-1.97,8.19,4.93,-0.27,0.01,-0.16,1251.62,1430.62
-2.42,8.14,4.92,-0.17,0.01,-0.05,1290.3,1451.36
-2.14,7.86,5.05,-0.1,-0.02,0.06,1350.97,1505.19
-1.92,7.56,5.43,0.17,0.16,0.35,1238.45,1407.43
-2.93,7.2,5.78,1.24,0.35,1.91,1127.5,1231.59
-0.55,5.99,4.07,1.99,0.84,3.0,977.49,1105.35
4.53,7.42,0.69,1.72,1.31,3.3,836.48,988.72
7.78,5.94,-0.7,1.16,0.93,3.36,763.96,937.3
12.17,3.46,-1.4,0.65,0.19,2.56,723.46,781.72
11.29,2.28,-0.96,0.29,0.12,1.44,634.74,687.72
11.13,1.7,-0.99,-0.08,-0.07,0.68,454.1,503.48
11.32,1.57,-0.47,-0.02,-0.35,0.05,286.93,310.85
9.61,2.06,-0.73,-0.05,0.03,0.05,237.52,312.04
10.15,1.85,-0.45,-0.05,-0.1,0.11,214.97,279.11
9.96,1.78,-0.54,-0.02,0.06,0.09,168.03,208.26
10.16,1.56,-0.88,-0.09,-0.01,0.09,177.22,212.08
10.14,1.77,-0.92,-0.07,0.03,0.06,271.05,386.52
10.46,1.87,-0.74,-0.07,-0.07,0.04,309.95,617.61
11.45,1.62,-0.93,-0.2,-0.15,-0.32,484.36,705.72
12.62,1.58,-1.92,-0.5,-0.0,-1.11,758.77,1098.87
10.98,2.92,-2.13,-0.92,0.03,-2.07,475.54,575.01
8.91,4.42,-0.85,-1.27,-0.52,-2.5,1218.76,1614.48
6.45,6.0,-0.19,-1.28,-0.12,-2.71,1362.92,1666.81
2.08,7.39,1.04,-1.1,-1.39,-2.77,1139.77,1364.54
-1.1,6.88,2.64,-1.05,-0.62,-2.12,1279.12,1501.62
-1.65,8.35,2.96,-0.98,-0.15,-1.68,1385.7,1559.04
-2.32,8.33,4.09,-0.51,-0.22,-0.83,1366.3,1552.57
-2.52,8.66,4.37,-0.25,-0.03,-0.19,1194.54,1372.09
-2.66,8.77,4.18,-0.14,-0.01,0.05,1221.29,1367.28
-2.14,8.31,4.2,-0.04,-0.0,0.07,1150.97,1310.95
-1.75,8.37,3.57,0.08,0.49,0.21,1199.08,1406.43
-3.14,7.17,4.54,0.73,0.43,1.33,1173.81,1362.72
-1.25,6.58,2.49,1.54,0.99,2.84,1171.28,1333.19
1.24,7.44,1.51,1.4,1.47,3.47,1049.32,1147.96
7.5,6.59,-1.69,1.19,0.11,3.56,967.85,1124.64
12.85,4.98,-2.08,0.55,1.2,2.47,803.32,895.46
10.23,2.77,-0.05,0.04,-0.07,1.26,602.96,667.42
11.14,2.58,-0.36,-0.09,0.16,0.62,496.71,537.81
11.03,2.62,0.44,-0.09,-0.2,0.09,373.74,392.87
9.05,2.91,-0.14,-0.03,0.01,0.04,293.43,316.92
9.99,2.6,-0.2,-0.08,0.09,0.12,269.65,367.07
9.94,2.64,-0.36,-0.06,0.06,0.05,202.1,229.84
9.62,2.62,-0.07,-0.09,0.05,0.05,177.67,231.04
9.96,2.63,-0.23,-0.05,-0.01,0.04,250.54,368.13
11.37,2.78,-0.69,-0.18,-0.09,-0.33,329.6,504.76
11.74,3.28,-0.95,-0.35,-0.14,-1.01,426.14,586.99
11.23,4.29,-1.21,-0.71,-0.23,-1.76,802.64,1104.14
8.83,5.31,-0.72,-1.13,-0.36,-2.42,924.82,1287.11
6.53,6.31,-0.01,-1.34,-0.38,-2.71,1105.45,1413.35
2.57,6.95,1.33,-1.26,-1.1,-2.51,1123.39,1389.36
0.35,6.71,2.62,-1.05,0.06,-2.04,1027.33,1279.81
-0.98,7.89,3.61,-1.04,-0.36,-1.56,1357.6,1603.92
-1.48,7.76,3.75,-0.62,-0.18,-0.8,1337.35,1517.1
-2.08,8.48,4.11,-0.25,0.16,-0.24,1310.41,1444.06
-1.76,8.2,4.69,-0.14,0.03,0.03,1138.73,1299.0
-1.95,7.86,4.73,0.08,0.27,0.35,1111.78,1296.78
-1.45,7.36,4.42,0.67,0.4,1.12,1066.74,1293.69
-1.13,7.22,3.37,1.41,0.53,2.14,1041.02,1250.31
2.82,7.76,1.09,1.44,0.48,2.52,1019.16,1167.5
3.84,7.8,0.06,1.21,0.37,2.6,862.05,1003.08
8.5,6.79,-1.68,0.97,0.49,2.34,865.12,955.19
10.3,4.87,-0.95,0.53,0.63,1.64,776.46,919.62
9.69,3.48,-0.62,0.31,0.07,1.0,614.13,656.53
9.13,3.25,-1.02,0.29,0.24,0.94,451.36,489.54
10.61,2.62,-1.13,0.22,0.03,0.85,387.35,419.84
10.61,2.62,-1.13,0.22,0.03,0.85,251.4,288.44
11.23,1.84,-1.45,-0.04,-0.23,0.21,178.84,215.59
9.87,1.67,-1.13,-0.1,0.0,0.03,184.31,238.5
9.79,1.76,-0.93,-0.08,0.1,-0.02,243.76,346.61
9.79,1.76,-0.93,-0.08,0.1,-0.02,200.13,302.85
10.0,1.82,-1.01,-0.08,0.04,0.02,284.01,391.28
10.41,1.74,-1.01,-0.11,0.08,-0.01,292.01,359.93
11.13,2.0,-1.0,-0.19,0.22,-0.28,352.26,534.16
11.11,2.15,-1.03,-0.33,-0.36,-0.72,428.18,579.36
11.03,3.08,-1.52,-0.55,0.19,-1.48,374.53,470.93
9.87,4.49,-1.88,-1.03,-0.44,-1.98,414.51,541.11
7.6,5.44,-0.49,-1.24,-0.42,-2.23,1381.65,1812.93
5.32,6.95,0.53,-1.22,-0.53,-2.35,1040.75,1309.92
2.57,7.67,0.69,-1.31,-0.91,-2.24,950.94,1189.29
0.59,7.9,2.32,-1.42,-0.42,-1.65,1228.45,1506.58
-0.73,8.57,3.91,-0.95,0.32,-1.23,1343.4,1568.04
-2.0,8.02,5.1,-0.56,0.02,-0.6,1262.4,1478.98
-1.01,8.2,4.82,-0.03,0.09,0.13,1078.78,1239.39
-1.72,8.82,4.54,0.19,0.3,0.45,970.9,1076.4
-0.98,8.62,4.1,0.38,-0.16,0.9,919.0,1027.23
-0.65,7.71,4.32,0.8,0.16,1.43,852.47,964.78
2.27,7.98,2.26,1.27,0.48,2.04,819.28,953.14
4.7,7.34,-0.13,1.22,0.65,2.25,909.82,1118.67
5.63,6.07,0.72,0.98,0.93,2.14,878.08,1043.11
9.2,5.79,-0.5,1.05,0.36,2.02,622.69,751.82
8.97,4.33,-0.31,0.95,0.51,1.8,579.24,643.42
10.41,2.39,-1.45,0.65,-0.06,1.62,510.22,539.12
11.67,1.53,-1.61,0.23,-0.01,1.22,347.23,373.39
13.13,1.06,-1.74,-0.04,-0.62,0.23,205.03,239.2
9.07,1.52,-1.28,-0.1,0.43,-0.24,258.31,314.62
9.57,1.4,-1.28,-0.11,0.01,0.16,233.39,279.91
10.52,1.24,-1.63,-0.08,-0.0,0.08,234.66,266.01
9.93,1.14,-1.21,-0.11,-0.01,-0.03,183.02,220.77
10.09,1.33,-1.25,-0.09,-0.01,0.03,275.89,363.25
10.98,1.39,-1.36,-0.13,0.0,-0.16,463.25,645.43
11.66,1.68,-1.75,-0.37,-0.19,-0.71,397.85,549.49
10.89,2.5,-1.2,-0.52,0.42,-1.2,536.52,727.56
10.66,3.68,-1.8,-0.79,-0.65,-1.65,605.53,833.51
8.81,4.82,-1.09,-1.15,-0.09,-2.04,533.85,718.64
7.0,5.5,-0.32,-1.34,-0.68,-2.22,1045.96,1382.03
4.89,7.75,0.48,-1.32,-0.71,-2.2,844.43,1031.92
2.89,7.51,0.91,-1.28,-0.74,-2.08,1044.56,1328.16
0.6,7.63,2.72,-1.42,0.26,-2.02,1489.26,1744.23
-1.56,7.64,4.08,-0.83,0.36,-1.4,1239.42,1447.09
-2.86,8.35,4.39,-0.31,0.09,-0.45,1332.65,1510.09
-2.74,8.62,4.21,-0.15,0.06,-0.08,1224.72,1396.14
-2.3,8.47,3.95,-0.09,-0.07,0.13,1199.04,1363.75
-2.33,7.72,4.93,0.27,0.45,0.45,1169.32,1295.35
-2.95,8.22,3.98,0.82,0.21,1.45,1118.54,1247.69
-0.51,8.49,2.43,1.03,0.15,2.07,1069.14,1210.98
2.85,7.21,1.19,1.2,0.1,2.33,939.0,1059.68
4.47,7.68,0.11,1.23,0.59,2.37,793.42,924.33
7.34,6.49,-1.03,1.15,0.71,2.28,644.48,757.28
9.48,4.79,-1.21,0.91,0.79,2.04,733.38,848.14
10.13,3.06,-1.6,0.49,0.25,1.7,646.17,703.84
10.58,2.16,-1.43,0.24,0.09,1.29,482.7,548.97
10.93,1.36,-0.75,0.07,-0.15,0.8,290.07,340.33
12.06,1.27,-2.27,0.04,0.45,0.0,229.49,258.97
9.87,1.49,-1.15,-0.15,-0.12,-0.09,220.82,267.67
10.02,1.4,-1.18,-0.07,0.01,0.07,215.07,256.38
10.02,1.4,-1.18,-0.07,0.01,0.07,237.23,339.18
9.99,1.34,-1.09,-0.11,0.09,-0.02,234.9,320.8
10.34,1.51,-1.17,-0.08,0.06,-0.03,488.12,813.06
11.5,1.44,-1.35,-0.16,-0.14,-0.32,628.55,1011.93
12.23,2.05,-1.99,-0.49,0.06,-1.06,519.24,677.48
11.1,3.2,-1.96,-0.74,-0.16,-1.88,441.22,569.7
9.34,4.48,-1.67,-1.28,-0.16,-2.29,470.12,650.24
6.72,5.67,-0.32,-1.45,-0.63,-2.44,1235.85,1622.85
4.1,7.34,0.93,-1.28,-0.86,-2.28,1173.59,1471.73
1.62,7.52,2.43,-1.35,-0.34,-2.07,909.92,1114.77
0.45,7.51,3.03,-1.2,-0.04,-1.71,1146.49,1411.77
-1.08,7.63,3.9,-0.84,-0.31,-1.14,1505.74,1711.92
-1.69,8.17,4.6,-0.46,0.24,-0.61,1379.36,1552.49
-2.29,8.55,4.48,-0.18,0.04,-0.18,1371.43,1511.64
-1.92,8.39,4.17,-0.14,0.03,-0.02,1265.8,1432.34
-1.89,8.49,4.06,-0.04,-0.07,0.19,1268.32,1419.18
-2.53,7.99,4.58,0.14,0.13,0.44,1133.76,1282.33
-3.15,6.99,4.68,0.99,0.85,1.69,1059.41,1152.5
-0.72,7.04,3.29,1.62,0.19,2.8,942.47,1028.46
3.12,7.65,0.89,1.56,1.21,3.01,894.29,982.95
8.23,6.89,-1.21,1.34,0.27,3.0,787.3,883.7
10.65,4.47,-0.75,0.87,1.15,2.24,671.03,814.49
10.21,2.5,-0.65,0.49,-0.5,1.57,551.22,593.54
10.65,2.35,-2.28,0.31,0.22,1.07,462.06,483.0
11.93,1.55,-1.92,0.09,-1.16,0.64,276.24,297.18
9.97,1.68,-2.21,-0.02,0.59,-0.04,175.59,194.86
10.1,1.69,-1.57,-0.07,0.17,0.07,248.0,511.09
10.45,1.76,-1.88,-0.09,0.26,-0.04,175.2,198.76
10.01,1.83,-1.73,-0.11,-0.02,0.08,467.8,799.79
10.48,2.08,-1.35,-0.08,0.07,0.14,253.87,300.34
10.0,1.05,-1.45,-0.04,0.1,0.19,341.24,499.31
10.26,1.12,-1.07,-0.15,0.04,0.17,342.43,420.53
11.81,1.12,-1.77,-0.14,-0.16,-0.22,517.1,717.2
12.35,1.29,-2.33,-0.4,0.13,-1.05,906.33,1213.23
11.57,2.43,-1.93,-0.84,-0.17,-1.97,765.35,1040.09
8.88,4.13,-2.28,-1.3,-0.29,-2.6,583.02,732.88
6.5,5.95,-1.74,-1.48,-0.88,-2.71,1143.0,1582.55
3.63,7.41,-0.34,-1.54,-0.88,-2.45,918.76,1104.82
1.88,6.18,1.92,-1.48,-0.45,-2.16,1339.17,1582.56
-0.55,8.37,2.83,-0.8,-0.19,-1.54,1541.8,1760.83
-1.62,8.83,3.55,-0.36,-0.01,-0.58,1450.07,1615.3
-1.41,8.59,2.98,-0.15,-0.02,-0.05,1339.1,1486.11
-1.61,9.09,3.36,-0.19,-0.05,0.06,1204.41,1359.43
-1.74,8.51,3.87,0.04,0.3,0.29,1403.98,1543.62
-1.76,8.71,3.63,0.64,0.05,1.32,1435.7,1556.55
-1.76,8.71,3.63,0.64,0.05,1.32,1366.76,1496.28
-0.31,7.54,2.51,1.01,0.04,2.11,1284.77,1433.78
3.5,7.39,0.25,1.16,0.35,2.68,1326.08,1465.66
7.0,6.44,-0.18,1.05,0.41,2.43,1170.0,1327.02
9.42,5.25,-0.82,0.87,0.13,1.9,936.48,1115.58
9.13,3.78,-0.21,1.0,0.31,1.39,845.92,977.67
8.6,2.95,-1.21,1.25,0.23,1.28,947.55,1047.64
11.13,2.52,-2.89,0.83,0.17,1.25,663.46,706.29
12.01,1.81,-3.42,0.17,0.58,0.49,429.32,469.05
10.92,1.52,-2.05,-0.35,-0.01,-0.04,295.17,333.22
8.69,1.71,-1.14,-0.26,0.13,-0.15,240.25,299.47
9.67,1.89,-2.04,-0.25,0.2,0.02,214.73,249.29
10.11,1.88,-1.42,-0.32,0.09,0.03,187.91,216.32
9.96,1.91,-1.31,-0.33,-0.11,0.1,158.89,181.55
10.27,1.78,-1.47,-0.49,0.19,0.13,157.93,193.61
10.18,1.92,-0.78,-0.42,0.12,0.04,146.24,167.46
9.8,1.82,-0.34,-0.16,0.25,-0.08,188.2,214.16
10.12,2.24,-0.13,-0.12,0.15,-0.09,169.59,194.6
10.03,2.24,0.16,-0.13,0.16,-0.07,2087.5,2492.81
9.99,2.44,-0.12,-0.05,0.12,-0.02,1642.54,1913.69
9.93,2.28,0.09,-0.08,0.14,0.03,1529.95,1650.11
10.01,2.2,-0.11,-0.1,0.1,0.03,1688.18,1800.5
