ax,ay,az,gx,gy,gz,mav,rms,label_kontraksi,repetisi,id_orang
8.79,2.8,3.46,-0.06,0.03,0.02,0.0,0.0,0,0,1
8.77,2.84,3.46,-0.07,0.04,0.02,0.0,0.0,0,0,1
8.73,2.85,3.45,-0.06,0.05,0.01,0.0,0.0,0,0,1
8.75,2.81,3.47,-0.05,0.04,-0.01,0.0,0.0,0,0,1
8.61,2.96,3.54,-0.06,0.05,0.01,0.0,0.0,0,0,1
8.75,2.96,3.57,-0.06,0.03,0.01,0.0,0.0,0,0,1
8.56,3.08,3.71,-0.02,0.01,0.02,0.0,0.0,0,0,1
8.64,3.42,3.92,-0.01,-0.04,0.05,0.0,0.0,0,0,1
8.51,3.24,3.78,0.02,-0.15,0.16,0.0,311.14,0,0,1
8.53,3.16,3.38,0.18,-0.25,0.22,0.0,341.07,0,0,1
9.24,2.97,2.5,0.34,-0.3,0.29,309.33,371.8,0,0,1
9.46,2.41,1.75,0.34,-0.19,0.38,310.51,363.53,0,0,1
9.71,2.31,1.5,0.39,-0.16,0.37,320.14,384.04,0,0,1
9.77,2.26,1.5,0.19,-0.03,0.38,0.0,318.31,0,0,1
9.81,1.64,1.52,-0.05,-0.05,0.35,0.0,315.29,0,0,1
9.7,1.42,1.58,-0.25,-0.02,0.27,0.0,344.24,0,0,1
9.61,0.82,1.83,-0.19,-0.07,0.16,0.0,339.15,0,0,1
9.96,0.83,1.46,-0.29,0.01,0.1,0.0,360.51,0,0,1
9.96,1.04,1.07,-0.29,-0.05,0.08,0.0,340.07,0,0,1
10.52,0.88,1.5,-0.23,-0.1,0.08,320.83,393.17,0,0,1
10.97,0.8,1.56,-0.33,0.11,-0.17,440.87,626.07,0,0,1
12.78,1.12,1.68,-0.13,-0.37,-0.96,761.16,1136.01,0,0,1
13.49,2.1,-0.89,-0.6,-0.31,-2.76,671.99,886.66,0,0,1
9.24,3.27,-0.72,-1.39,-0.68,-3.49,962.84,1283.03,0,0,1
5.76,4.83,1.51,-1.12,-1.09,-3.29,1049.58,1370.24,0,0,1
0.54,3.68,2.63,-1.43,-0.4,-3.34,1163.27,1392.79,0,0,1
0.33,5.63,3.16,-1.79,-0.39,-3.2,1206.47,1442.78,1,0,1
-1.93,7.63,4.22,0.72,1.05,1.07,963.85,1052.75,0,1,1
-2.98,6.52,2.38,1.06,1.17,2.71,773.81,823.79,0,1,1
1.73,7.96,1.32,1.11,0.64,3.48,545.75,650.29,0,1,1
6.07,8.34,0.4,0.66,0.74,3.32,382.18,445.41,0,1,1
9.55,5.96,-0.47,0.46,1.05,2.91,375.81,536.66,0,1,1
12.4,3.3,0.51,-0.04,0.2,2.11,497.32,649.77,0,1,1
10.19,2.78,0.17,-0.1,0.29,1.23,479.73,613.9,0,1,1
9.66,1.67,1.32,-0.29,0.17,1.01,415.15,518.39,0,1,1
9.55,0.97,1.37,-0.07,0.15,0.94,405.59,497.74,0,1,1
12.12,0.28,1.27,-0.16,0.59,0.27,426.27,495.39,0,1,1
9.27,0.83,1.54,-0.06,0.22,0.01,315.91,389.76,0,1,1
9.66,0.75,1.82,-0.06,0.04,0.0,338.61,398.04,0,1,1
10.12,0.81,1.43,-0.08,0.1,-0.04,439.75,542.73,0,1,1
9.75,0.85,2.18,-0.14,-0.02,-0.12,488.6,624.78,0,1,1
9.85,1.16,0.61,-0.16,-0.11,0.25,301.57,358.06,0,1,1
10.25,-0.0,1.68,-0.28,0.19,0.17,329.33,373.55,0,1,1
10.13,0.21,1.38,-0.01,0.0,0.04,313.13,380.39,0,1,1
9.91,0.28,1.56,-0.09,-0.0,0.05,346.13,454.69,0,1,1
10.0,0.3,1.51,-0.06,0.02,0.02,593.96,835.22,0,1,1
10.64,0.36,1.75,-0.1,-0.09,0.03,651.46,950.39,0,1,1
12.97,0.45,1.92,0.16,-0.54,-1.02,760.87,1054.33,0,1,1
12.88,2.04,-1.91,-0.11,-0.79,-1.96,942.02,1250.79,0,1,1
11.69,3.32,-1.54,-1.33,-0.65,-3.19,1201.79,1538.28,1,1,1
-4.18,6.63,5.01,-0.74,-0.09,-2.22,1164.1,1387.49,0,2,1
-3.5,8.25,5.37,0.19,0.43,-0.13,1302.67,1483.16,1,2,1
-3.07,7.05,4.19,1.1,0.94,1.25,1094.29,1278.73,0,3,1
-3.07,6.68,2.14,1.62,1.23,3.09,763.22,892.59,0,3,1
1.4,8.37,0.17,0.93,0.23,3.79,809.74,954.54,0,3,1
6.65,5.95,-1.07,0.13,0.12,3.66,619.76,683.22,0,3,1
12.41,2.22,-1.13,-0.04,0.22,3.27,584.42,819.88,0,3,1
13.05,0.12,0.16,0.03,-0.14,2.0,485.68,561.2,0,3,1
11.43,-0.07,-1.71,-0.21,0.2,1.18,430.49,498.13,0,3,1
12.4,-0.52,-0.06,-0.2,0.34,0.28,414.17,504.04,0,3,1
10.1,0.12,-1.22,0.19,0.23,0.16,379.93,440.46,0,3,1
10.61,-0.67,0.96,-0.02,0.49,-0.06,395.78,465.65,0,3,1
10.09,-0.31,0.28,-0.09,-0.03,0.05,336.76,393.51,0,3,1
10.28,-0.5,0.69,-0.06,0.15,-0.02,358.42,423.41,0,3,1
10.11,-0.33,0.46,-0.04,0.06,0.03,351.12,421.5,0,3,1
10.28,-0.22,0.55,-0.08,-0.03,0.03,336.25,392.82,0,3,1
10.41,-0.25,0.56,-0.11,-0.02,0.04,506.3,760.87,0,3,1
11.44,-0.39,1.23,-0.03,-0.22,-0.42,582.62,766.73,0,3,1
13.82,0.37,-0.19,0.11,-0.8,-1.53,616.82,832.97,0,3,1
12.21,2.09,-2.4,-0.35,-0.11,-2.61,838.34,1097.67,0,3,1
10.5,3.74,-2.56,-1.26,-0.73,-3.26,1079.22,1460.82,1,3,1
-2.1,6.16,4.68,-0.92,0.03,-2.37,1012.97,1282.12,0,4,1
-3.41,8.5,4.2,-0.1,0.12,-0.28,1108.45,1342.9,0,4,1
-2.81,8.7,3.49,0.23,0.87,0.23,1386.51,1575.1,1,4,1
-2.69,6.95,3.67,1.03,1.12,1.76,1236.28,1393.28,1,4,1
-0.83,7.2,1.47,1.29,0.2,3.27,987.78,1117.0,0,5,1
4.24,7.47,-1.43,1.15,0.95,3.41,807.47,940.45,0,5,1
8.43,3.64,-2.06,0.48,0.35,3.42,792.03,903.15,0,5,1
11.88,2.05,-1.18,-0.13,0.55,2.64,799.58,962.95,0,5,1
10.99,0.71,0.37,-0.27,0.18,1.81,675.48,807.65,0,5,1
12.38,-0.31,-0.81,-0.04,-0.04,1.28,480.63,564.11,0,5,1
12.75,-0.88,-0.05,-0.23,0.19,0.31,512.15,622.67,0,5,1
9.55,-0.18,-0.15,0.07,0.0,0.0,374.01,441.41,0,5,1
9.69,-0.58,0.73,-0.08,0.26,-0.03,370.97,426.63,0,5,1
10.22,-0.22,0.0,-0.06,0.02,0.01,347.45,402.62,0,5,1
10.03,-0.26,0.28,-0.07,0.03,0.02,395.48,454.51,0,5,1
10.24,-0.38,0.28,-0.08,0.03,0.03,397.04,475.54,0,5,1
10.1,-0.35,0.27,-0.04,0.02,0.03,399.03,464.2,0,5,1
10.16,-0.39,0.47,-0.03,-0.0,-0.0,351.68,445.43,0,5,1
12.37,-0.35,0.84,-0.02,-0.21,-0.46,516.1,645.46,0,5,1
13.69,0.43,-0.86,0.01,-0.81,-1.65,571.86,777.84,0,5,1
11.36,1.77,-1.41,-0.5,-0.24,-2.55,816.21,1122.74,0,5,1
10.38,3.54,-1.83,-1.23,-0.33,-3.18,956.24,1243.28,0,5,1
5.47,5.06,-1.19,-1.52,-0.85,-3.28,1106.12,1390.69,0,5,1
3.83,6.13,1.52,-1.81,-0.26,-3.29,1014.33,1252.34,0,5,1
-0.54,7.64,3.03,-0.95,-0.06,-2.27,1231.6,1522.26,1,5,1
-4.8,8.15,4.59,0.28,0.75,0.56,1169.11,1341.79,0,6,1
-3.96,7.38,2.7,1.04,0.9,2.44,1075.34,1227.83,0,6,1
1.77,8.12,0.6,1.31,0.05,3.18,929.69,1062.83,0,6,1
4.68,7.14,-0.89,0.89,0.3,3.14,933.95,1003.91,0,6,1
7.58,3.76,-0.68,0.27,0.72,3.27,593.43,670.21,0,6,1
11.46,1.85,-0.06,0.17,0.21,2.76,549.02,698.2,0,6,1
11.92,1.45,-1.59,0.21,-0.16,1.9,427.08,500.18,0,6,1
12.1,0.04,-1.0,-0.36,0.23,1.03,364.96,436.99,0,6,1
10.29,-0.61,0.82,-0.09,0.7,0.78,538.51,687.19,0,6,1
11.61,-1.49,0.27,0.05,-0.11,0.07,409.14,497.39,0,6,1
10.59,-0.86,-0.11,-0.11,-0.03,0.03,366.76,449.44,0,6,1
10.14,-0.74,0.33,-0.03,0.01,-0.0,457.27,631.29,0,6,1
10.24,-0.94,0.27,-0.08,0.05,-0.02,370.22,427.4,0,6,1
10.24,-0.9,0.34,-0.05,-0.03,0.0,374.88,446.82,0,6,1
9.98,-0.55,0.24,-0.05,0.05,0.0,333.06,395.18,0,6,1
9.99,-0.82,0.4,-0.13,0.09,-0.01,382.17,444.77,0,6,1
10.26,-0.67,0.39,-0.1,0.01,-0.02,455.63,564.54,0,6,1
9.79,-0.53,0.33,-0.13,0.05,0.06,485.9,680.35,0,6,1
11.38,-1.16,0.96,-0.12,-0.15,-0.13,383.23,500.91,0,6,1
13.66,-0.68,-0.6,-0.19,-0.66,-1.48,646.23,888.35,0,6,1
11.91,1.35,-2.2,-0.44,-0.35,-2.13,729.17,1034.69,0,6,1
11.05,3.08,-2.84,-1.21,-0.53,-2.84,598.5,763.64,0,6,1
6.65,3.62,-0.09,-1.6,-0.03,-3.1,884.56,1230.08,0,6,1
5.09,6.09,0.34,-1.4,-0.38,-3.19,1069.44,1424.18,1,6,1
-2.63,7.97,4.76,-0.2,0.26,-0.55,692.48,822.6,0,7,1
-2.29,8.1,4.65,0.64,0.85,0.77,629.83,789.42,0,7,1
-2.79,6.64,3.09,1.39,0.64,2.64,535.4,606.6,0,7,1
2.88,7.64,-0.45,1.51,0.29,3.47,526.67,606.08,0,7,1
6.27,6.31,-1.69,0.92,0.67,3.57,400.69,526.04,0,7,1
10.37,3.37,-2.18,0.09,-0.04,3.1,656.97,846.86,0,7,1
11.74,1.24,-0.54,-0.36,0.53,2.12,774.48,1010.79,0,7,1
12.11,0.1,0.12,-0.25,-0.0,1.28,865.88,1179.22,0,7,1
10.6,-0.14,-0.34,0.12,0.31,0.87,551.48,648.63,0,7,1
12.56,-0.51,-1.28,0.03,0.32,0.62,480.09,586.53,0,7,1
10.36,-0.88,1.22,-0.11,0.44,-0.12,464.21,546.76,0,7,1
11.0,-0.71,-0.23,0.0,-0.09,0.01,480.14,552.85,0,7,1
10.05,-0.73,0.95,-0.09,0.15,-0.01,494.45,575.39,0,7,1
10.35,-0.73,0.51,-0.07,0.14,-0.0,436.96,502.33,0,7,1
9.91,-0.75,0.87,-0.09,-0.01,-0.05,375.31,448.9,0,7,1
10.37,-0.69,0.88,-0.05,0.01,0.01,374.46,454.89,0,7,1
10.33,-0.63,0.91,-0.04,-0.02,-0.01,395.02,466.68,0,7,1
9.92,-0.48,0.73,-0.08,0.06,-0.0,370.16,437.58,0,7,1
10.27,-0.64,0.9,-0.1,0.05,0.02,469.49,639.0,0,7,1
11.28,-0.61,0.84,-0.05,-0.14,-0.19,474.7,620.98,0,7,1
13.42,-0.03,0.27,0.01,-0.65,-0.92,434.57,498.43,0,7,1
10.63,1.24,-0.49,-0.2,-0.0,-1.53,804.79,1088.62,0,7,1
11.42,2.15,-0.22,-0.47,-0.22,-1.86,706.94,946.17,0,7,1
11.7,3.61,-1.22,-0.76,-0.06,-2.85,564.69,714.5,0,7,1
4.79,4.75,0.2,-1.18,-0.61,-3.13,1000.05,1284.85,0,7,1
3.65,6.86,0.16,-1.27,-0.51,-2.72,767.75,1024.38,0,7,1
2.63,8.12,1.84,-1.1,0.15,-2.34,1162.11,1515.83,1,7,1
-3.26,9.06,3.38,0.43,0.57,0.76,631.39,750.87,0,8,1
-2.02,7.56,2.79,0.79,0.67,1.63,528.57,613.27,0,8,1
-0.16,7.02,2.04,0.97,1.15,2.66,494.79,588.35,0,8,1
3.75,8.34,-0.34,0.55,1.38,2.77,428.22,482.77,0,8,1
6.75,6.33,0.42,-0.01,0.65,2.88,439.81,552.47,0,8,1
9.54,4.25,1.8,0.03,0.87,2.33,557.19,751.79,0,8,1
10.09,2.58,0.42,0.01,-0.18,1.8,640.5,788.09,0,8,1
11.44,1.26,-0.11,-0.16,-0.59,1.35,627.41,781.84,0,8,1
11.6,0.74,0.26,-0.09,-0.25,0.94,711.31,926.29,0,8,1
11.43,0.24,0.06,-0.03,0.08,0.51,448.08,558.19,0,8,1
10.2,0.22,0.4,-0.06,0.33,-0.14,466.99,553.6,0,8,1
10.44,0.38,0.11,-0.09,-0.06,0.03,403.44,472.89,0,8,1
10.0,0.42,0.39,-0.09,0.05,-0.0,449.37,564.62,0,8,1
9.99,0.35,0.38,-0.08,0.13,0.01,492.05,560.16,0,8,1
10.12,0.3,0.44,-0.08,0.1,0.0,450.57,512.13,0,8,1
10.21,0.39,0.25,-0.06,0.04,0.01,392.57,436.64,0,8,1
10.18,0.33,0.52,-0.06,0.01,0.04,376.24,464.04,0,8,1
11.14,0.31,0.68,0.02,-0.06,-0.17,451.93,547.05,0,8,1
10.84,0.78,-0.08,0.04,-0.32,-0.59,419.97,507.55,0,8,1
12.19,1.44,-0.69,-0.22,-0.18,-1.14,695.88,1037.3,0,8,1
12.05,2.54,-1.21,-0.49,0.06,-1.94,598.01,748.07,0,8,1
9.71,3.75,-0.56,-0.69,-0.17,-2.55,693.15,904.08,0,8,1
7.24,5.59,-0.16,-0.96,-0.39,-2.75,967.56,1321.2,0,8,1
4.12,6.39,0.61,-1.21,-0.74,-2.81,775.53,987.66,0,8,1
2.24,6.04,1.98,-1.35,0.19,-2.84,919.66,1138.41,0,8,1
-2.32,7.44,3.64,-0.72,-0.02,-1.8,786.74,942.59,0,8,1
-3.9,8.05,3.97,-0.45,-0.2,-1.04,909.96,1187.15,0,8,1
-4.62,8.57,3.98,-0.26,-0.21,-0.23,786.01,968.55,0,8,1
-2.89,8.54,3.83,-0.19,0.0,-0.06,727.54,966.11,0,8,1
-3.71,8.17,4.76,0.08,0.44,0.44,636.03,760.12,0,8,1
-5.57,7.21,4.92,0.46,1.3,0.97,605.33,707.31,0,8,1
-1.81,7.27,3.27,0.33,0.81,1.13,697.02,897.0,0,8,1
-4.3,2.72,4.92,1.89,0.42,4.6,463.3,529.3,0,8,1
7.28,5.58,-0.65,1.99,1.55,4.24,620.82,956.48,0,8,1
11.23,3.33,-1.78,0.79,0.49,3.57,638.14,868.8,0,8,1
13.96,1.31,-1.36,-0.38,0.7,1.92,462.89,578.98,0,8,1
11.94,1.05,0.67,-0.44,0.17,0.8,517.64,627.25,0,8,1
9.77,1.08,0.29,0.15,-0.11,0.91,519.26,611.6,0,8,1
12.4,-0.04,-0.28,-0.16,0.4,0.36,432.57,535.02,0,8,1
9.55,0.4,1.25,-0.04,0.58,-0.05,463.01,530.68,0,8,1
10.67,0.52,0.47,-0.04,0.16,-0.01,483.0,569.39,0,8,1
10.15,0.42,1.06,-0.12,0.02,0.01,453.66,518.4,0,8,1
10.28,0.28,0.76,-0.09,0.13,-0.03,491.01,544.23,0,8,1
9.8,0.5,1.13,-0.06,0.14,0.01,471.95,543.02,0,8,1
10.02,0.58,0.95,-0.08,0.09,-0.01,420.11,479.27,0,8,1
10.32,0.46,1.04,-0.12,0.01,-0.03,547.7,622.74,0,8,1
10.62,0.32,1.64,-0.05,-0.15,-0.19,586.46,691.2,0,8,1
12.7,1.09,-0.12,0.0,-0.45,-0.88,852.81,1109.65,0,8,1
11.6,2.24,-0.45,-0.28,-0.18,-1.57,625.64,756.22,0,8,1
9.34,3.46,0.66,-0.61,-0.14,-2.08,691.64,904.3,0,8,1
9.39,5.57,0.67,-0.94,-1.04,-2.47,590.44,792.56,0,8,1
8.71,5.63,0.98,-1.26,-0.85,-3.28,1033.69,1357.08,0,8,1
1.36,5.48,1.24,-0.93,-0.3,-2.95,1088.38,1359.14,0,8,1
0.43,7.17,0.98,-1.26,-0.44,-2.27,1144.9,1401.82,1,8,1
-4.69,8.16,5.2,0.36,0.81,0.52,743.59,898.91,0,9,1
-2.18,8.24,3.13,1.12,1.73,1.66,690.87,761.7,0,9,1
-0.94,8.2,1.77,1.01,2.02,2.63,509.69,580.77,0,9,1
3.98,7.04,1.2,0.67,0.05,3.08,398.61,576.79,0,9,1
6.21,6.84,0.6,0.38,0.97,2.92,441.86,581.74,0,9,1
10.49,4.49,0.56,-0.05,-0.3,2.58,592.36,792.5,0,9,1
11.22,2.82,0.98,-0.19,0.13,1.76,803.41,1020.93,0,9,1
11.88,1.52,0.33,-0.04,-0.48,1.25,775.55,954.82,0,9,1
10.6,0.99,0.13,0.16,-0.17,1.07,463.47,551.13,0,9,1
12.6,0.52,-0.9,-0.06,0.42,0.37,1444.25,1750.36,1,9,1
9.49,0.62,0.78,-0.17,0.24,-0.1,1521.2,1751.69,1,9,1
10.13,0.57,0.59,-0.01,0.03,0.09,1058.15,1214.55,0,10,1
10.14,0.66,0.18,-0.08,0.06,-0.01,1068.59,1276.93,0,10,1
9.87,0.43,0.45,-0.12,0.01,0.02,1310.97,1504.12,1,10,1
10.24,0.6,0.33,-0.08,0.02,0.01,1193.14,1370.14,0,11,1
10.32,0.58,0.63,-0.05,0.03,-0.02,1063.83,1232.9,0,11,1
10.65,0.66,0.4,-0.08,0.06,-0.22,1240.29,1436.32,1,11,1
9.88,1.03,0.38,-0.1,-0.03,-0.22,1262.4,1446.35,1,11,1
12.29,1.24,-0.14,-0.19,0.04,-0.65,1281.08,1458.61,1,11,1
11.26,1.54,0.5,-0.3,0.69,-1.6,1072.38,1226.38,0,12,1
9.52,3.34,0.67,-0.39,0.11,-1.79,949.27,1136.71,0,12,1
10.87,4.49,-0.21,-0.68,-0.23,-2.24,914.09,1048.6,0,12,1
8.64,5.68,0.55,-1.06,-0.17,-3.11,1042.87,1280.01,0,12,1
0.73,5.26,2.22,-1.35,-0.73,-3.2,921.73,1130.75,0,12,1
-1.65,6.42,3.67,-1.28,-0.34,-2.41,841.81,1041.02,0,12,1
-0.98,7.27,4.53,-0.95,-0.29,-1.49,909.22,1185.81,0,12,1
-3.43,7.18,6.39,-0.59,-0.05,-1.02,1209.55,1481.45,1,12,1
-0.97,7.65,4.28,1.37,1.23,2.08,816.22,895.7,0,13,1
-0.01,7.22,2.04,1.28,1.06,2.84,525.41,595.07,0,13,1
4.52,7.24,-0.96,0.91,0.76,3.01,548.19,736.09,0,13,1
7.4,5.15,-0.5,0.31,0.54,2.97,1012.6,1380.79,0,13,1
9.24,3.54,0.48,0.1,0.35,2.54,1248.86,1549.31,1,13,1
10.97,2.97,0.2,0.2,0.34,1.97,1084.36,1300.21,0,14,1
11.0,1.86,0.17,0.03,0.14,1.3,833.41,961.26,0,14,1
11.99,0.8,0.34,-0.09,0.14,0.87,782.05,833.2,0,14,1
11.21,0.49,0.63,-0.11,0.25,0.12,617.31,663.61,0,14,1
9.9,0.63,0.86,-0.08,0.04,0.15,372.67,427.62,0,14,1
10.25,0.48,0.62,-0.16,0.03,0.26,314.84,356.22,0,14,1
9.77,-0.24,0.8,-0.09,0.07,0.17,0.0,0.0,0,14,1
9.71,-0.07,0.64,-0.05,0.0,0.17,0.0,0.0,0,14,1
10.18,-0.53,0.99,-0.09,-0.06,0.14,0.0,0.0,0,14,1
10.08,-0.21,0.81,-0.01,-0.03,0.11,0.0,0.0,0,14,1
9.95,-0.34,0.84,-0.01,-0.1,0.23,0.0,0.0,0,14,1
10.03,-0.85,0.52,-0.06,-0.12,0.22,0.0,0.0,0,14,1
10.08,-1.05,0.26,0.01,-0.09,0.15,0.0,0.0,0,14,1
10.28,-0.84,0.21,-0.05,-0.0,0.07,0.0,0.0,0,14,1
10.13,-1.02,0.43,-0.1,0.01,0.01,0.0,0.0,0,14,1
9.98,-0.68,-0.18,-0.05,-0.09,-0.01,0.0,340.91,0,14,1
11.88,-1.01,0.38,-0.06,-0.45,-0.55,410.57,541.28,0,14,1
12.76,-0.25,-1.48,-0.16,-0.28,-1.84,528.67,715.39,0,14,1
12.18,1.77,-2.35,-0.61,-0.33,-2.55,700.93,1080.04,0,14,1
10.37,3.28,-2.03,-1.41,-0.48,-3.47,829.51,1109.1,0,14,1
3.95,2.66,0.23,-1.67,-0.53,-3.56,781.23,942.63,0,14,1
3.55,7.67,0.12,-1.28,-0.24,-2.73,917.34,1221.44,0,14,1
0.66,7.72,2.64,-1.06,-0.14,-2.45,1050.45,1391.57,0,14,1
-4.48,7.84,3.32,-0.6,-0.71,-1.24,1262.03,1543.17,1,14,1
-1.93,8.23,3.1,0.76,0.8,1.95,866.17,914.59,0,15,1
-0.24,8.11,1.58,1.11,0.34,2.66,587.29,633.45,0,15,1
1.81,6.56,0.08,1.01,0.23,3.38,472.54,607.05,0,15,1
6.31,5.07,-0.96,0.61,0.67,3.68,339.29,414.78,0,15,1
12.23,1.34,-1.13,0.22,0.36,2.87,466.35,787.55,0,15,1
10.92,-0.09,-0.29,0.4,0.04,1.94,322.33,366.88,0,15,1
10.43,-0.09,-1.95,0.28,-0.07,1.48,326.35,402.02,0,15,1
11.24,-1.6,-0.92,0.07,0.15,1.33,462.16,599.32,0,15,1
13.43,-2.45,-1.2,0.14,0.45,0.56,392.82,526.44,0,15,1
10.69,-2.01,-0.75,-0.19,0.14,0.03,0.0,320.85,0,15,1
10.26,-2.67,0.1,-0.05,0.03,-0.0,305.87,391.47,0,15,1
9.76,-2.28,-0.62,-0.09,0.1,-0.15,0.0,0.0,0,15,1
10.01,-2.0,-0.54,-0.2,0.15,-0.18,0.0,0.0,0,15,1
10.03,-1.48,-0.38,-0.11,0.2,-0.1,0.0,0.0,0,15,1
10.26,-1.43,-0.37,-0.03,0.06,0.03,0.0,0.0,0,15,1
10.01,-1.84,-0.15,-0.1,0.08,0.05,0.0,0.0,0,15,1
10.09,-1.78,-0.04,-0.1,0.05,0.01,0.0,303.09,0,15,1
10.05,-1.66,-0.2,-0.07,0.09,0.0,0.0,0.0,0,15,1
9.95,-1.43,-0.07,-0.07,0.07,-0.02,0.0,0.0,0,15,1
11.29,-1.89,-0.18,-0.06,-0.18,-0.26,388.12,578.69,0,15,1
14.85,-1.02,-1.31,-0.18,-0.12,-1.09,467.83,738.24,0,15,1
12.44,0.72,-1.58,-0.3,-0.3,-2.1,340.98,452.28,0,15,1
11.46,1.78,-1.02,-0.6,-0.0,-2.46,593.6,835.6,0,15,1
9.73,3.95,-0.54,-0.68,-0.66,-3.17,975.96,1350.77,0,15,1
5.2,5.39,-0.62,-0.87,-1.13,-3.26,824.93,1078.73,0,15,1
2.36,6.56,-0.42,-1.43,-0.24,-3.01,1111.76,1433.07,1,15,1
-1.41,9.13,3.39,0.19,0.66,0.5,714.03,779.51,0,16,1
-1.02,8.55,2.1,0.7,0.11,1.94,507.63,582.6,0,16,1
-1.11,7.1,1.64,1.0,0.14,2.96,386.15,444.09,0,16,1
4.35,5.27,0.11,1.12,0.67,3.66,479.35,693.24,0,16,1
10.88,3.57,-1.7,0.81,0.25,3.37,392.54,546.52,0,16,1
11.76,1.0,-1.66,0.29,0.5,2.33,474.9,666.03,0,16,1
11.53,0.12,-0.81,0.18,-0.09,1.46,322.42,369.44,0,16,1
11.57,-0.67,-0.8,0.17,-0.25,1.14,334.8,443.8,0,16,1
11.44,-1.27,-1.57,0.14,0.22,0.74,0.0,326.7,0,16,1
10.73,-1.84,-0.54,-0.13,0.34,0.12,0.0,0.0,0,16,1
10.37,-1.48,-0.25,-0.08,0.13,-0.0,0.0,0.0,0,16,1
10.09,-1.7,-0.37,-0.1,0.17,-0.05,0.0,0.0,0,16,1
10.18,-1.49,-0.18,-0.05,0.14,0.03,0.0,0.0,0,16,1
10.21,-1.54,-0.24,-0.07,0.11,0.03,0.0,0.0,0,16,1
10.13,-1.68,-0.17,-0.07,0.1,-0.01,0.0,0.0,0,16,1
10.1,-1.56,-0.04,-0.06,0.06,-0.0,0.0,0.0,0,16,1
10.12,-1.49,-0.24,-0.08,0.07,0.01,0.0,0.0,0,16,1
10.11,-1.41,-0.06,-0.08,0.1,-0.02,0.0,0.0,0,16,1
10.22,-1.38,0.08,-0.05,0.06,0.0,0.0,0.0,0,16,1
10.03,-1.39,-0.25,-0.05,0.08,0.01,0.0,0.0,0,16,1
10.82,-1.43,0.33,-0.08,-0.06,-0.24,0.0,407.49,0,16,1
13.49,-1.11,-0.92,-0.16,-0.29,-1.1,431.9,734.68,0,16,1
12.44,0.34,-1.74,-0.45,0.09,-1.84,385.56,519.06,0,16,1
11.1,1.64,-1.32,-0.67,-0.17,-2.37,542.84,765.36,0,16,1
10.26,3.1,0.11,-0.66,-0.62,-2.77,580.48,849.3,0,16,1
8.04,5.29,-0.85,-0.86,-0.77,-3.36,853.73,1130.31,0,16,1
2.17,4.03,0.04,-1.22,-0.27,-3.58,930.09,1280.52,0,16,1
-2.58,7.21,2.68,-1.06,-0.53,-2.06,1041.18,1373.11,0,16,1
-2.49,8.5,3.89,-0.82,-0.7,-1.22,1233.29,1526.3,1,16,1
-2.21,7.66,3.34,0.87,0.32,2.09,899.65,942.5,0,17,1
0.67,7.17,1.44,1.01,0.66,3.11,576.59,627.63,0,17,1
4.92,5.56,0.48,0.81,0.88,3.6,416.13,477.21,0,17,1
9.83,3.61,-0.3,0.7,0.07,3.29,372.8,437.52,0,17,1
11.09,2.13,-0.75,0.37,0.36,2.29,435.35,620.04,0,17,1
10.8,1.16,-0.09,0.25,0.35,1.61,0.0,305.99,0,17,1
10.55,0.34,-0.33,0.2,-0.15,1.29,0.0,0.0,0,17,1
11.77,-0.83,-0.4,0.19,-0.15,1.06,0.0,0.0,0,17,1
12.17,-1.06,-0.38,-0.09,0.18,0.18,0.0,0.0,0,17,1
9.15,-0.87,0.34,-0.06,0.07,-0.0,0.0,0.0,0,17,1
10.34,-1.04,-0.11,-0.12,0.18,0.02,0.0,0.0,0,17,1
9.69,-0.95,0.1,-0.09,0.02,0.04,0.0,320.82,0,17,1
10.07,-1.02,0.19,-0.09,0.1,-0.01,0.0,0.0,0,17,1
10.14,-1.07,0.07,-0.05,0.01,0.03,0.0,0.0,0,17,1
10.15,-0.94,0.11,-0.06,-0.03,0.03,0.0,0.0,0,17,1
10.19,-1.01,-0.0,-0.08,-0.0,0.0,0.0,0.0,0,17,1
10.21,-0.91,-0.17,-0.08,-0.02,0.01,0.0,0.0,0,17,1
10.14,-0.87,-0.03,-0.06,0.0,0.03,0.0,0.0,0,17,1
10.05,-1.02,-0.16,-0.07,0.04,0.01,0.0,0.0,0,17,1
10.07,-0.88,0.08,-0.09,0.05,0.0,0.0,0.0,0,17,1
11.35,-1.16,0.38,-0.03,-0.06,-0.13,449.47,659.71,0,17,1
12.57,-0.62,-0.1,-0.09,-0.07,-1.28,0.0,360.61,0,17,1
11.65,0.98,-1.53,-0.25,-0.25,-1.9,568.23,828.92,0,17,1
12.28,1.85,-1.61,-0.96,-0.08,-3.29,869.79,1236.91,0,17,1
6.79,3.83,0.28,-1.09,-0.56,-3.67,735.63,1003.68,0,17,1
4.22,6.04,-0.15,-1.2,-0.64,-3.45,543.86,690.5,0,17,1
0.85,5.67,2.36,-1.58,-0.31,-2.85,853.13,1199.06,0,17,1
-2.28,7.39,3.79,-1.18,-0.21,-2.05,1097.24,1474.12,1,17,1
-2.49,7.37,4.23,1.15,0.92,2.63,671.93,730.33,0,18,1
1.81,7.54,1.02,1.13,0.53,3.39,523.49,577.36,0,18,1
7.19,5.79,-0.2,0.59,1.06,3.29,437.51,523.37,0,18,1
9.34,3.15,0.18,0.51,0.4,2.92,341.88,399.85,0,18,1
11.8,3.03,-0.32,0.21,-0.17,1.96,365.24,438.38,0,18,1
10.88,1.64,-0.06,0.1,-0.16,1.35,419.22,613.82,0,18,1
11.26,0.8,-0.44,0.14,-0.13,1.04,0.0,348.39,0,18,1
10.89,0.26,-0.12,0.07,-0.09,0.65,0.0,0.0,0,18,1
10.12,-0.2,0.0,0.02,0.13,0.58,0.0,0.0,0,18,1
11.74,-0.69,-0.24,-0.06,0.1,0.25,0.0,0.0,0,18,1
10.1,-0.53,-0.03,-0.06,0.13,-0.07,0.0,410.95,0,18,1
10.71,-0.52,-0.31,-0.08,0.03,0.01,0.0,0.0,0,18,1
9.83,-0.43,0.17,-0.09,0.07,-0.03,0.0,0.0,0,18,1
10.16,-0.43,-0.1,-0.08,0.06,0.01,0.0,0.0,0,18,1
10.09,-0.55,-0.01,-0.09,0.03,0.0,0.0,342.83,0,18,1
9.78,-0.38,0.12,-0.08,0.0,-0.08,0.0,0.0,0,18,1
10.1,-0.31,-0.25,-0.06,-0.01,0.05,0.0,0.0,0,18,1
11.23,-0.44,-0.11,-0.11,-0.05,-0.08,333.3,462.15,0,18,1
12.92,0.04,-0.67,-0.12,-0.1,-0.94,304.35,409.37,0,18,1
11.86,1.13,-0.73,-0.26,0.17,-1.52,437.46,587.85,0,18,1
11.26,1.84,-0.67,-0.65,0.31,-2.36,473.12,693.83,0,18,1
9.59,3.69,-0.45,-0.92,-0.25,-2.86,537.28,662.78,0,18,1
7.63,4.7,0.43,-1.01,-0.19,-3.27,610.71,888.13,0,18,1
3.61,7.7,1.32,-1.28,-1.05,-3.04,1007.66,1341.71,0,18,1
-1.05,7.11,2.65,-1.09,-0.18,-2.63,1242.44,1611.72,1,18,1
-3.65,8.07,4.29,0.68,0.58,1.58,662.7,719.39,0,19,1
-1.0,7.2,2.78,1.07,0.08,2.93,543.14,660.32,0,19,1
1.75,5.75,1.78,0.94,0.4,3.52,458.32,502.75,0,19,1
9.42,4.67,-1.09,0.76,0.04,3.38,396.78,505.52,0,19,1
11.3,2.43,-0.59,0.51,-0.01,2.49,353.46,437.05,0,19,1
11.71,2.26,-0.35,0.58,-0.18,1.49,466.56,695.25,0,19,1
10.12,1.41,-1.5,0.17,0.05,0.95,319.57,356.23,0,19,1
10.91,0.24,-0.32,0.0,0.31,0.84,0.0,328.65,0,19,1
10.26,0.01,-0.2,0.15,0.28,0.73,0.0,340.17,0,19,1
11.71,-0.5,-0.8,-0.12,0.19,0.0,0.0,0.0,0,19,1
9.57,-0.11,0.21,-0.07,0.08,0.0,0.0,0.0,0,19,1
10.17,-0.33,-0.06,-0.08,0.16,0.01,0.0,0.0,0,19,1
10.14,-0.35,-0.06,-0.07,0.03,0.01,0.0,0.0,0,19,1
10.04,-0.18,-0.0,-0.08,0.08,-0.01,0.0,0.0,0,19,1
10.11,-0.11,-0.17,-0.05,0.11,0.04,0.0,0.0,0,19,1
9.97,-0.31,0.07,-0.09,0.13,0.08,0.0,0.0,0,19,1
10.26,-0.4,0.12,-0.06,-0.08,-0.01,0.0,0.0,0,19,1
10.66,-0.22,-0.03,-0.04,-0.08,-0.02,301.3,491.0,0,19,1
11.55,-0.02,-0.09,-0.07,-0.13,-0.45,317.95,450.1,0,19,1
13.23,0.67,-1.14,-0.22,-0.29,-0.92,640.71,928.14,0,19,1
11.34,1.29,-0.84,-0.52,0.18,-1.8,431.94,598.5,0,19,1
9.71,3.2,-0.49,-0.62,0.28,-1.89,664.87,867.57,0,19,1
10.33,3.94,-0.17,-0.8,0.26,-2.42,890.2,1251.36,0,19,1
6.73,5.07,1.47,-0.85,0.11,-3.2,737.24,958.86,0,19,1
3.47,6.67,0.72,-1.71,-1.34,-3.47,724.12,987.79,0,19,1
-3.47,6.73,3.58,-0.96,0.38,-2.7,990.93,1259.79,0,19,1
-3.87,9.14,3.97,-0.53,-0.73,-0.67,990.64,1245.57,0,19,1
-4.41,8.01,3.96,-0.36,-0.15,-0.28,1166.59,1453.14,1,19,1
-2.94,6.21,3.95,1.19,1.15,2.85,736.2,801.6,0,20,1
1.25,6.37,2.08,1.1,1.1,3.67,523.78,625.69,0,20,1
4.07,4.64,1.86,0.61,0.87,3.94,395.86,454.32,0,20,1
11.64,2.66,-0.13,0.32,-0.14,3.46,420.5,581.0,0,20,1
12.07,1.59,0.42,0.05,-0.3,2.13,311.34,372.61,0,20,1
11.36,0.98,0.14,-0.02,0.11,1.34,313.27,358.65,0,20,1
12.81,0.04,-0.19,-0.01,0.13,0.72,0.0,0.0,0,20,1
10.81,0.49,-0.98,-0.03,0.3,-0.13,0.0,0.0,0,20,1
11.52,0.07,-0.13,-0.14,-0.1,0.07,0.0,0.0,0,20,1
10.12,0.25,-0.13,-0.16,0.11,0.0,0.0,0.0,0,20,1
10.15,0.02,0.23,-0.12,0.1,0.01,0.0,0.0,0,20,1
10.08,0.21,0.28,-0.06,0.08,0.02,0.0,0.0,0,20,1
10.17,0.14,0.3,-0.05,0.02,0.0,0.0,0.0,0,20,1
10.1,0.31,0.25,-0.07,0.05,0.02,0.0,0.0,0,20,1
10.21,0.27,0.25,-0.07,0.04,-0.01,0.0,0.0,0,20,1
11.55,0.02,0.7,-0.05,0.02,-0.22,512.57,949.73,0,20,1
12.15,0.91,-0.54,0.07,-0.23,-1.19,0.0,412.53,0,20,1
9.88,2.07,-0.37,-0.36,0.21,-1.51,421.22,571.91,0,20,1
10.76,3.12,0.03,-0.49,-0.05,-1.81,424.53,676.77,0,20,1
9.34,4.53,-0.57,-0.72,-0.18,-2.37,537.85,836.13,0,20,1
7.04,5.94,-0.1,-0.98,-0.65,-2.64,585.83,959.07,0,20,1
4.36,7.82,0.48,-1.31,-1.44,-2.74,870.05,1244.56,0,20,1
0.69,4.74,3.28,-1.61,-0.81,-2.86,836.62,1224.04,0,20,1
-0.64,7.69,4.05,-1.05,-0.88,-1.92,842.97,1127.15,0,20,1
-3.07,7.65,5.13,-0.64,-0.13,-0.7,1019.73,1337.36,0,20,1
-2.06,8.44,5.04,-0.36,0.25,-0.41,1006.9,1208.5,0,20,1
-0.43,8.59,4.28,-0.12,0.2,-0.07,807.24,1015.81,0,20,1
-1.74,8.92,4.16,0.42,0.17,0.96,691.65,954.1,0,20,1
-4.58,6.93,5.17,0.81,1.71,1.85,431.84,498.6,0,20,1
0.29,6.24,2.96,1.36,1.82,3.72,394.36,490.93,0,20,1
4.47,5.75,2.53,1.06,1.92,4.02,403.83,492.62,0,20,1
12.34,4.19,-0.1,0.51,0.57,3.4,511.14,726.4,0,20,1
12.12,1.5,0.09,0.2,-0.73,2.31,323.78,364.09,0,20,1
11.48,0.86,-0.06,0.05,-0.09,1.49,0.0,330.24,0,20,1
11.63,0.46,-0.05,0.13,0.04,1.17,0.0,323.02,0,20,1
13.76,-0.11,-0.51,-0.03,-0.23,-0.02,0.0,0.0,0,20,1
9.88,0.52,0.11,-0.08,-0.28,0.12,0.0,0.0,0,20,1
10.2,0.11,0.31,-0.16,0.2,-0.07,0.0,0.0,0,20,1
9.89,0.4,0.39,-0.14,0.08,-0.01,0.0,0.0,0,20,1
10.13,0.33,0.49,-0.08,0.09,-0.03,0.0,0.0,0,20,1
10.27,0.47,0.41,-0.03,0.0,0.02,0.0,0.0,0,20,1
10.12,0.43,0.65,-0.06,0.03,0.03,0.0,0.0,0,20,1
10.11,0.35,0.68,-0.06,0.06,-0.01,0.0,0.0,0,20,1
11.4,0.38,0.77,-0.08,-0.02,-0.17,0.0,535.0,0,20,1
13.09,0.98,-0.07,-0.14,0.14,-1.32,352.39,503.64,0,20,1
12.05,2.22,-0.4,-0.37,0.1,-2.0,438.91,628.38,0,20,1
10.17,3.52,-0.44,-0.77,-0.34,-2.78,766.82,1081.95,0,20,1
7.26,5.5,0.71,-0.98,-0.78,-2.98,570.38,784.78,0,20,1
2.26,6.16,1.34,-1.38,-0.77,-3.23,672.69,993.5,0,20,1
0.41,5.63,2.18,-1.75,-0.67,-2.93,879.32,1181.7,0,20,1
-1.34,7.77,4.0,-1.15,-0.34,-2.3,655.69,889.79,0,20,1
-0.76,8.53,4.79,-0.52,-0.26,-0.9,1291.68,1645.98,1,20,1
-1.88,7.73,4.36,0.81,1.2,2.25,826.23,869.79,0,21,1
-0.76,7.32,3.58,1.05,0.37,2.87,532.05,580.44,0,21,1
3.84,7.57,1.15,0.93,0.54,3.07,396.44,463.5,0,21,1
6.02,5.88,0.99,0.46,0.71,2.91,804.18,1103.39,0,21,1
8.57,3.96,1.52,0.13,0.86,2.45,411.87,495.08,0,21,1
10.25,2.68,1.51,0.12,-0.28,1.81,365.07,518.26,0,21,1
9.87,2.13,1.34,0.22,0.02,1.32,0.0,303.24,0,21,1
10.07,1.01,0.76,0.15,-0.61,1.39,0.0,0.0,0,21,1
13.09,0.12,0.11,0.03,0.07,0.85,0.0,300.58,0,21,1
10.86,0.1,0.57,-0.13,0.06,-0.14,0.0,0.0,0,21,1
9.79,0.37,0.68,-0.04,0.02,0.08,0.0,0.0,0,21,1
10.14,0.07,0.75,-0.13,0.14,-0.03,0.0,0.0,0,21,1
10.15,0.13,0.58,-0.05,0.02,0.03,0.0,0.0,0,21,1
10.07,0.19,0.75,-0.08,0.06,-0.03,0.0,0.0,0,21,1
10.28,0.11,0.79,-0.06,0.02,-0.05,0.0,0.0,0,21,1
11.02,0.37,0.57,-0.07,0.0,-0.28,0.0,0.0,0,21,1
12.23,0.97,0.28,-0.13,0.05,-1.0,328.17,544.66,0,21,1
11.21,1.91,0.34,-0.13,-0.05,-1.63,459.32,668.72,0,21,1
9.82,3.05,0.23,-0.41,0.06,-1.94,394.2,628.66,0,21,1
10.56,4.72,0.06,-0.85,-0.42,-2.56,486.58,654.62,0,21,1
7.74,5.42,0.34,-1.16,-0.55,-3.34,494.47,694.63,0,21,1
1.08,5.66,2.51,-1.14,-1.21,-3.27,757.02,1059.17,0,21,1
0.15,7.59,2.81,-1.37,-1.04,-2.95,1073.63,1452.87,1,21,1
-3.83,7.76,5.84,0.2,0.24,0.75,559.17,628.69,0,22,1
-3.21,7.22,5.52,0.7,0.83,1.7,428.1,460.53,0,22,1
-0.03,6.94,3.4,1.3,0.58,2.65,344.12,420.72,0,22,1
3.02,6.98,1.55,1.12,0.98,2.88,0.0,347.12,0,22,1
7.45,6.49,0.02,0.66,-0.09,2.95,523.7,809.72,0,22,1
9.99,5.09,0.25,0.25,0.61,2.33,435.22,606.04,0,22,1
10.28,3.26,0.91,0.2,0.04,1.57,0.0,327.92,0,22,1
10.95,2.5,0.39,0.14,-0.12,1.09,330.17,414.24,0,22,1
9.75,2.14,0.21,0.04,-0.16,0.93,0.0,0.0,0,22,1
10.78,1.58,0.4,-0.02,0.05,0.83,0.0,0.0,0,22,1
11.77,1.19,0.33,-0.05,-0.01,0.4,0.0,0.0,0,22,1
10.01,1.07,0.86,-0.11,0.3,-0.05,0.0,0.0,0,22,1
10.18,1.0,0.39,-0.06,-0.03,0.1,0.0,0.0,0,22,1
9.98,0.95,0.84,-0.1,0.12,0.01,0.0,0.0,0,22,1
10.04,0.96,0.61,-0.06,0.1,0.01,0.0,0.0,0,22,1
9.96,0.96,0.82,-0.09,0.1,0.02,0.0,0.0,0,22,1
10.08,0.97,0.78,-0.1,0.1,-0.0,0.0,0.0,0,22,1
9.73,0.99,0.77,-0.07,0.15,-0.01,0.0,0.0,0,22,1
11.1,0.97,0.83,-0.07,-0.01,-0.07,0.0,0.0,0,22,1
11.21,1.18,1.3,-0.01,-0.05,-0.5,428.9,666.86,0,22,1
13.05,1.98,-0.69,-0.17,-0.32,-1.3,412.24,561.27,0,22,1
9.74,3.18,0.24,-0.56,-0.06,-1.89,489.83,619.58,0,22,1
9.81,4.41,-0.33,-0.92,-0.24,-2.44,628.73,913.54,0,22,1
8.0,5.79,0.59,-1.24,-0.67,-2.95,548.36,735.86,0,22,1
4.72,7.01,1.3,-1.28,-1.12,-3.06,509.56,629.45,0,22,1
2.13,4.34,4.77,-1.42,-0.9,-3.01,622.34,923.77,0,22,1
-1.92,6.09,3.74,-0.91,-0.3,-2.08,849.43,1179.3,0,22,1
-1.69,7.64,4.3,-0.66,-0.85,-1.0,1086.07,1429.03,1,22,1
-2.84,7.0,4.46,0.69,0.88,2.37,694.14,730.37,0,23,1
-0.97,6.93,3.73,0.92,0.31,3.05,457.39,489.34,0,23,1
4.34,7.19,1.79,0.86,0.41,3.12,382.66,490.66,0,23,1
6.83,6.09,1.11,0.59,0.06,2.6,706.87,1056.87,0,23,1
10.11,5.45,0.61,0.34,0.1,1.82,494.9,641.5,0,23,1
9.91,4.5,1.14,0.26,-0.13,1.16,378.98,450.55,0,23,1
8.83,3.79,0.91,0.35,-0.32,0.96,337.67,389.64,0,23,1
9.77,2.77,0.28,0.43,-0.41,1.23,379.69,474.66,0,23,1
10.56,1.87,-0.64,0.15,-0.08,1.1,0.0,323.63,0,23,1
11.81,1.05,0.19,-0.06,0.04,0.73,0.0,0.0,0,23,1
11.64,1.15,0.02,-0.09,0.07,-0.01,0.0,0.0,0,23,1
9.77,1.09,0.39,-0.08,0.01,0.07,0.0,0.0,0,23,1
9.92,1.05,0.2,-0.06,0.12,-0.0,0.0,0.0,0,23,1
10.01,1.03,0.42,-0.05,0.05,0.01,0.0,0.0,0,23,1
10.08,1.06,0.39,-0.07,0.1,-0.01,0.0,0.0,0,23,1
10.25,1.11,0.35,-0.06,0.02,0.02,0.0,0.0,0,23,1
10.46,1.04,0.4,-0.07,0.07,-0.03,0.0,314.01,0,23,1
11.56,1.07,0.65,-0.07,0.09,-0.42,0.0,428.21,0,23,1
11.63,1.89,-0.3,-0.16,-0.14,-1.11,349.91,543.68,0,23,1
10.06,2.86,0.52,-0.4,0.19,-1.49,353.54,534.84,0,23,1
9.6,4.03,0.34,-0.53,-0.1,-1.7,404.09,518.95,0,23,1
8.4,5.25,0.73,-0.77,-0.04,-2.0,371.3,567.07,0,23,1
7.09,6.4,1.09,-0.85,-0.18,-2.18,536.02,694.26,0,23,1
5.12,7.19,1.5,-0.94,-0.52,-2.47,420.79,560.83,0,23,1
0.95,6.66,2.81,-1.05,-0.38,-2.14,605.79,919.53,0,23,1
2.19,8.9,2.8,-0.98,-0.51,-1.83,525.15,704.49,0,23,1
-0.62,7.89,4.86,-0.89,-0.38,-1.71,862.48,1243.44,0,23,1
-4.48,6.82,5.83,-0.66,0.03,-1.2,925.78,1229.41,0,23,1
-2.64,7.23,5.58,-0.31,-0.03,-0.27,1130.47,1503.37,1,23,1
-1.33,7.79,4.89,0.49,0.74,1.08,684.03,761.16,0,24,1
-1.3,6.91,4.32,0.8,0.4,2.12,454.92,532.52,0,24,1
0.99,7.72,2.7,1.13,0.07,2.73,551.61,624.74,0,24,1
4.36,7.09,1.09,0.86,0.28,2.71,451.84,541.1,0,24,1
8.04,6.39,1.23,0.63,0.39,2.26,486.09,668.62,0,24,1
8.35,5.96,1.2,0.59,0.28,1.64,438.8,523.58,0,24,1
8.41,4.73,0.34,0.46,-0.27,1.47,416.25,567.44,0,24,1
9.0,3.37,-0.03,0.16,-0.33,1.59,357.55,422.89,0,24,1
10.33,2.15,0.53,0.19,-0.22,1.45,315.31,381.62,0,24,1
13.13,1.66,-0.57,-0.03,-0.1,0.6,0.0,330.24,0,24,1
9.45,2.01,0.5,-0.07,0.41,-0.09,0.0,0.0,0,24,1
11.05,1.64,-0.1,-0.09,-0.06,0.1,0.0,0.0,0,24,1
9.48,1.61,0.2,-0.09,0.09,0.01,0.0,0.0,0,24,1
10.22,1.59,0.45,-0.06,0.1,-0.01,0.0,0.0,0,24,1
9.91,1.73,0.37,-0.04,0.08,0.03,0.0,0.0,0,24,1
9.93,1.59,0.48,-0.05,0.07,0.03,0.0,0.0,0,24,1
10.11,1.67,0.47,-0.07,0.1,-0.02,0.0,371.19,0,24,1
10.18,1.88,0.39,-0.03,0.09,-0.1,0.0,437.15,0,24,1
12.08,2.03,0.45,-0.07,-0.11,-0.65,548.32,831.0,0,24,1
11.71,2.66,-0.39,-0.24,0.22,-1.4,325.54,427.8,0,24,1
10.11,3.86,-0.23,-0.55,-0.28,-1.89,584.98,860.42,0,24,1
9.15,5.33,-0.44,-0.87,-0.24,-2.46,578.18,819.71,0,24,1
6.61,7.37,0.52,-1.08,-1.08,-2.89,581.4,814.73,0,24,1
4.66,7.64,-0.83,-1.57,-2.82,-3.3,936.28,1362.21,0,24,1
-0.52,8.37,2.97,-1.43,-1.11,-1.97,835.57,1071.17,0,24,1
-0.04,7.15,5.14,-1.08,0.2,-1.79,1109.09,1430.84,1,24,1
-2.85,7.72,5.45,0.05,0.44,0.34,793.99,924.69,0,25,1
-0.99,8.36,4.39,0.35,0.37,0.97,620.41,670.75,0,25,1
-2.7,6.15,4.32,0.85,0.71,2.37,372.06,420.02,0,25,1
0.33,6.94,3.59,1.16,0.73,3.24,308.31,393.74,0,25,1
6.44,7.35,1.24,1.03,0.81,3.1,321.21,443.02,0,25,1
8.22,5.23,1.17,0.66,0.46,2.83,606.16,799.19,0,25,1
9.49,3.74,0.58,0.39,0.32,2.22,343.56,405.53,0,25,1
9.87,2.96,0.36,0.07,-0.09,1.5,316.19,367.56,0,25,1
11.04,2.05,0.86,0.17,-0.25,1.17,0.0,301.57,0,25,1
11.28,1.47,-0.05,0.02,0.02,0.96,0.0,0.0,0,25,1
12.83,0.72,0.58,-0.02,-0.22,0.06,0.0,334.4,0,25,1
8.9,1.33,0.95,-0.08,-0.06,0.05,0.0,0.0,0,25,1
9.61,1.05,0.75,-0.08,0.06,-0.03,0.0,0.0,0,25,1
10.05,1.14,0.65,-0.09,0.05,0.02,0.0,0.0,0,25,1
10.01,1.16,0.51,-0.08,0.09,0.01,0.0,0.0,0,25,1
10.08,1.15,0.85,-0.07,0.02,0.02,0.0,0.0,0,25,1
10.28,1.27,0.79,-0.1,0.12,-0.1,0.0,0.0,0,25,1
11.03,1.4,0.71,-0.03,0.0,-0.36,0.0,372.58,0,25,1
12.43,2.06,-0.25,-0.19,-0.1,-1.02,0.0,409.42,0,25,1
10.15,2.96,0.11,-0.39,-0.34,-1.48,380.46,557.26,0,25,1
8.92,4.07,0.62,-0.53,-0.51,-1.61,401.22,554.77,0,25,1
8.46,5.21,0.57,-0.65,-0.13,-1.88,317.28,383.76,0,25,1
7.78,6.61,1.25,-0.93,-0.0,-2.5,630.5,913.85,0,25,1
4.07,5.86,2.38,-1.07,-0.67,-3.28,656.84,909.64,0,25,1
-0.09,7.12,2.72,-1.36,-0.96,-2.64,738.69,1030.63,0,25,1
-0.95,6.16,4.27,-1.18,-0.32,-2.3,810.6,1106.21,0,25,1
-4.51,6.73,5.92,-0.66,0.03,-1.23,892.43,1204.32,0,25,1
-3.16,7.92,5.57,-0.32,-0.03,-0.3,787.35,1051.87,0,25,1
-3.01,7.66,5.73,-0.23,0.05,-0.21,844.79,1057.86,0,25,1
-2.64,7.49,5.41,-0.09,0.04,0.16,731.75,904.77,0,25,1
-3.15,7.65,5.52,0.17,0.61,0.52,509.92,587.23,0,25,1
-4.24,6.44,6.75,0.7,1.09,1.55,487.1,670.16,0,25,1
-1.85,5.58,5.63,1.41,1.0,2.97,517.11,670.85,0,25,1
1.82,6.66,2.5,1.45,0.9,3.75,482.81,557.32,0,25,1
7.06,5.84,1.14,0.7,0.6,3.43,395.73,483.22,0,25,1
10.52,3.37,1.64,0.52,0.81,2.63,397.9,533.87,0,25,1
8.75,2.94,0.6,0.37,0.26,1.95,370.66,459.78,0,25,1
10.49,2.37,0.57,0.12,-0.46,1.56,314.65,365.03,0,25,1
12.25,1.1,0.38,0.21,0.03,1.2,317.3,390.96,0,25,1
12.18,0.72,-0.06,-0.17,0.32,0.41,320.18,404.73,0,25,1
9.8,0.66,1.78,-0.07,0.27,-0.07,0.0,0.0,0,25,1
10.54,0.5,0.84,-0.05,0.14,-0.04,0.0,0.0,0,25,1
10.33,0.66,1.18,-0.07,0.12,-0.09,0.0,0.0,0,25,1
10.19,0.79,0.96,-0.02,-0.12,-0.11,0.0,0.0,0,25,1
9.76,1.27,0.79,-0.1,0.3,-0.09,0.0,0.0,0,25,1
9.92,0.84,1.83,-0.05,0.05,-0.01,0.0,0.0,0,25,1
13.36,1.1,0.86,-0.11,-0.1,-0.58,431.55,622.6,0,25,1
11.8,1.94,0.84,-0.23,0.08,-1.68,405.11,534.67,0,25,1
10.19,2.96,0.17,-0.49,-0.2,-1.99,731.23,1212.9,0,25,1
9.88,4.06,-0.11,-0.97,-0.39,-2.77,621.23,793.24,0,25,1
7.09,5.73,0.62,-1.24,-1.04,-3.0,977.6,1334.39,0,25,1
3.57,5.38,1.32,-1.88,-0.58,-3.45,875.52,1117.63,0,25,1
-1.41,6.66,4.96,-1.08,-0.47,-1.99,743.58,946.27,0,25,1
-1.49,6.82,4.9,-0.85,-0.33,-1.7,1087.33,1404.95,1,25,1
-2.61,6.9,5.64,0.74,0.61,1.82,789.21,864.83,0,26,1
-0.6,7.01,4.36,1.08,0.64,2.57,537.29,585.47,0,26,1
2.39,6.9,2.06,1.08,0.91,2.96,401.78,477.47,0,26,1
4.89,6.04,1.76,0.83,0.52,2.94,404.74,575.36,0,26,1
9.69,5.91,0.53,0.59,0.29,2.55,697.8,1085.45,0,26,1
11.18,3.73,0.69,0.31,-0.29,1.82,406.9,521.69,0,26,1
9.58,2.74,0.83,0.44,-0.71,1.29,345.46,435.95,0,26,1
9.4,2.33,-0.34,0.1,0.22,1.26,334.79,376.5,0,26,1
11.45,1.1,0.59,0.02,0.25,0.85,0.0,317.16,0,26,1
12.51,1.14,-0.22,-0.01,-0.14,-0.07,0.0,370.46,0,26,1
10.76,1.23,0.79,-0.14,-0.16,0.02,0.0,0.0,0,26,1
9.88,1.25,0.72,-0.12,0.02,-0.01,0.0,0.0,0,26,1
10.01,1.2,0.97,-0.1,0.08,-0.03,0.0,0.0,0,26,1
10.15,1.26,0.9,-0.09,0.05,-0.02,0.0,0.0,0,26,1
10.15,1.42,1.01,-0.1,0.02,-0.0,0.0,0.0,0,26,1
10.96,1.37,1.19,-0.09,-0.05,-0.13,332.15,604.36,0,26,1
13.22,1.98,0.56,-0.08,-0.43,-1.03,369.63,546.6,0,26,1
9.75,2.83,0.46,-0.35,-0.1,-1.76,0.0,350.54,0,26,1
9.55,4.18,-0.54,-0.74,-0.1,-1.78,467.08,683.66,0,26,1
8.65,5.14,0.3,-0.99,-0.53,-1.97,614.75,836.55,0,26,1
7.16,5.95,1.29,-1.17,-0.62,-2.38,637.69,870.58,0,26,1
4.38,7.92,1.36,-1.31,-0.96,-2.48,876.75,1238.55,0,26,1
0.02,7.2,3.67,-1.25,-0.29,-2.07,918.33,1245.09,0,26,1
0.1,7.41,4.07,-1.05,-0.4,-1.77,871.37,1150.06,0,26,1
-1.72,7.72,4.73,-0.82,-0.05,-1.35,678.81,980.12,0,26,1
-3.11,7.07,5.74,-0.6,0.03,-0.77,1175.88,1549.71,1,26,1
-3.73,7.07,5.77,0.22,0.28,0.72,782.86,825.86,0,27,1
-3.17,7.81,5.29,0.78,0.68,1.67,488.73,541.26,0,27,1
-2.41,7.44,4.64,1.18,0.84,2.17,334.63,383.04,0,27,1
0.8,7.83,2.71,1.14,0.11,2.8,733.17,965.45,0,27,1
3.8,7.5,1.33,0.88,0.61,2.73,445.75,567.8,0,27,1
9.07,5.74,0.63,0.78,0.97,2.16,509.46,739.18,0,27,1
8.58,4.5,0.48,0.51,0.37,1.75,335.62,396.61,0,27,1
8.83,3.92,0.45,0.36,0.11,1.6,307.27,388.94,0,27,1
10.87,2.65,0.05,0.28,0.25,1.35,394.46,594.77,0,27,1
13.19,2.17,-0.71,-0.13,0.13,0.36,379.27,536.17,0,27,1
9.19,2.67,1.2,-0.28,0.31,-0.01,0.0,0.0,0,27,1
10.18,2.29,0.3,-0.22,0.12,0.13,0.0,0.0,0,27,1
9.51,2.09,1.71,-0.32,0.23,-0.01,0.0,0.0,0,27,1
9.78,2.15,1.79,-0.27,0.24,-0.02,0.0,0.0,0,27,1
9.62,2.39,2.04,-0.15,0.19,-0.04,0.0,0.0,0,27,1
9.35,2.43,2.19,-0.07,0.12,-0.01,0.0,0.0,0,27,1
9.51,2.48,2.29,-0.06,0.11,-0.03,0.0,0.0,0,27,1
9.33,2.41,2.11,-0.09,0.1,-0.02,0.0,0.0,0,27,1
9.56,2.44,2.1,-0.1,0.06,-0.03,0.0,0.0,0,27,1
9.51,2.4,2.05,-0.12,0.04,0.02,0.0,0.0,0,27,1
9.58,2.32,1.93,-0.1,-0.01,0.05,0.0,0.0,0,27,1
9.42,2.31,1.94,-0.09,0.01,0.02,0.0,0.0,0,27,1
9.55,2.35,1.92,-0.1,0.01,0.02,0.0,0.0,0,27,1
2.31,-1.87,9.15,0.22,0.47,-0.03,412.4,604.71,0,0,1
1.26,-1.0,9.09,0.39,0.48,0.28,337.09,493.16,0,0,1
1.61,-0.58,9.03,0.39,0.52,0.46,338.96,479.17,0,0,1
0.94,0.23,8.6,0.49,0.65,0.42,410.3,568.98,0,0,1
-0.16,0.39,9.03,0.41,0.75,0.7,711.56,995.23,0,0,1
-0.41,0.42,9.01,0.38,0.85,0.84,1537.53,1913.16,1,0,1
-1.72,0.85,8.78,0.36,1.06,0.7,1479.2,1728.04,1,0,1
-2.82,1.8,8.51,0.31,1.24,0.81,1877.47,1921.19,1,0,1
-2.88,2.29,8.86,0.15,0.77,0.77,1290.75,1336.58,1,0,1
-3.25,2.09,8.48,0.26,0.81,0.66,1025.73,1132.48,0,1,1
-4.37,1.86,7.75,-0.53,0.26,0.9,766.51,892.84,0,1,1
-1.82,1.87,9.06,-1.06,-1.14,1.26,587.06,793.03,0,1,1
-0.04,2.02,10.37,-0.75,-1.64,0.92,639.97,921.06,0,1,1
1.8,2.1,10.69,0.41,-1.36,0.16,677.52,1015.67,0,1,1
-0.45,2.89,9.8,1.65,0.16,-0.14,532.97,799.71,0,1,1
1.09,4.2,7.27,2.41,0.88,0.11,454.1,686.13,0,1,1
3.16,5.17,6.37,2.43,1.04,0.2,425.05,682.07,0,1,1
-0.18,8.2,2.76,1.87,0.5,0.28,1195.26,1641.13,1,1,1
0.07,10.12,2.11,1.7,-0.41,0.47,2199.46,2261.19,1,1,1
0.71,10.58,1.81,1.93,-0.57,0.62,1580.42,1629.78,1,1,1
-0.06,9.5,0.81,1.8,-0.21,1.08,800.91,904.67,0,2,1
1.83,9.38,-2.96,1.15,-0.21,1.64,681.2,809.99,0,2,1
1.9,7.84,-3.15,0.24,-0.39,2.04,508.78,587.58,0,2,1
3.18,5.91,-2.98,-0.28,0.63,1.91,514.16,625.52,0,2,1
4.41,4.38,-2.91,0.01,0.35,1.89,488.83,537.53,0,2,1
6.56,3.84,-2.61,0.15,0.85,1.97,1145.81,1587.97,1,2,1
8.99,2.76,-2.96,0.19,0.9,2.08,707.87,787.75,0,3,1
8.99,2.76,-2.96,0.19,0.9,2.08,405.66,475.15,0,3,1
12.49,-0.19,-0.62,-0.3,0.66,0.29,338.03,411.85,0,3,1
10.03,0.65,-0.29,-0.04,0.07,-0.22,284.27,337.17,0,3,1
10.17,1.35,-0.98,0.02,0.1,-0.03,249.27,285.55,0,3,1
10.21,1.12,-0.85,-0.13,0.1,0.02,791.07,1143.46,0,3,1
10.11,0.98,-0.61,-0.18,-0.04,-0.01,1133.12,1494.49,1,3,1
10.93,1.19,-0.68,-0.25,-0.14,-0.09,532.19,642.33,0,4,1
12.72,1.09,-0.62,-0.35,-0.08,-0.91,803.8,1138.62,0,4,1
13.18,2.09,-2.16,-0.78,-0.19,-1.98,1179.74,1552.29,1,4,1
9.71,3.47,-1.82,-1.41,-0.62,-2.59,1769.71,1964.86,1,4,1
6.31,5.26,-0.93,-1.77,-1.01,-2.79,1270.95,1428.93,1,4,1
3.41,6.16,-0.05,-1.82,-1.04,-2.67,1170.56,1367.88,0,5,1
1.81,6.0,2.57,-1.44,-0.59,-2.01,1352.07,1553.05,1,5,1
-0.6,8.69,4.07,-0.34,0.86,-1.15,1355.87,1520.26,1,5,1
-0.6,8.69,4.07,-0.34,0.86,-1.15,1369.92,1518.41,1,5,1
-3.09,9.38,3.39,0.15,0.31,0.15,1171.72,1312.98,0,6,1
-2.22,8.23,2.66,0.68,0.22,1.71,1092.67,1203.69,0,6,1
2.09,8.49,1.39,0.82,0.34,2.54,846.28,898.96,0,6,1
5.47,7.51,0.41,0.72,0.18,2.65,572.0,619.63,0,6,1
8.16,5.55,0.19,0.8,0.35,2.41,566.16,747.47,0,6,1
9.21,3.49,-0.12,0.93,0.31,2.02,441.97,501.85,0,6,1
10.47,2.59,-0.69,0.89,0.09,1.7,332.66,382.96,0,6,1
11.05,2.03,-2.24,0.53,-0.09,1.5,321.75,394.8,0,6,1
12.23,0.72,-0.89,-0.06,0.37,0.6,267.48,309.96,0,6,1
10.61,0.93,-0.5,-0.11,0.22,-0.06,247.86,278.45,0,6,1
10.27,1.03,-0.39,-0.03,0.03,0.01,262.68,383.83,0,6,1
9.98,0.92,-0.15,-0.08,0.14,0.04,286.89,402.42,0,6,1
10.24,0.79,-0.26,-0.09,0.05,0.02,288.88,358.79,0,6,1
10.16,1.01,-0.2,-0.1,0.09,-0.01,379.81,537.91,0,6,1
10.62,0.91,-0.44,-0.08,0.04,0.01,1013.84,1441.86,1,6,1
12.95,0.96,-0.41,-0.29,-0.51,-0.52,897.79,1212.06,0,7,1
12.51,1.64,-1.41,-0.62,-0.06,-1.78,847.23,1193.12,0,7,1
10.86,3.26,-1.51,-1.03,-0.25,-2.54,957.1,1208.29,0,7,1
7.56,3.78,-0.25,-1.39,-0.05,-3.09,963.05,1163.2,0,7,1
4.82,5.51,0.59,-1.28,-0.38,-3.18,1381.61,1686.01,1,7,1
1.63,6.92,1.73,-0.99,-0.38,-2.81,1308.59,1517.6,1,7,1
-1.98,7.89,2.91,-0.66,-0.05,-1.78,1142.67,1359.9,0,8,1
-3.43,8.48,3.66,-0.32,-0.3,-0.6,1077.22,1240.83,0,8,1
-3.57,9.08,3.08,0.21,-0.05,1.1,899.53,978.61,0,8,1
-0.94,8.6,2.93,0.46,0.16,1.88,731.12,842.02,0,8,1
-0.68,7.67,2.39,0.62,0.64,2.41,619.44,699.58,0,8,1
3.01,7.55,1.6,0.69,0.13,2.97,576.06,673.55,0,8,1
7.29,5.63,0.41,0.65,0.36,2.65,447.42,509.57,0,8,1
10.31,3.69,-0.04,0.44,0.14,2.12,498.31,555.15,0,8,1
10.73,2.88,0.91,0.49,-0.05,1.48,421.04,604.69,0,8,1
8.78,2.62,0.45,0.49,0.05,1.11,294.47,330.6,0,8,1
9.95,1.39,-0.95,0.22,-0.21,1.32,273.96,314.66,0,8,1
11.94,0.33,-0.6,0.02,0.22,0.78,264.82,333.51,0,8,1
11.06,-0.02,0.06,-0.1,0.04,0.03,220.43,272.41,0,8,1
9.86,0.47,0.33,-0.02,0.06,-0.05,215.5,257.71,0,8,1
10.42,0.2,-0.08,-0.07,0.01,0.02,205.23,245.7,0,8,1
10.16,0.17,0.12,-0.15,0.09,-0.0,186.32,221.59,0,8,1
10.33,0.38,-0.12,-0.12,0.15,0.03,325.2,490.95,0,8,1
12.58,0.09,-0.57,-0.16,-0.11,-0.3,412.39,584.26,0,8,1
12.45,0.73,0.0,-0.24,0.09,-1.33,586.01,846.06,0,8,1
12.25,2.37,-1.1,-0.47,-0.24,-2.19,417.73,584.28,0,8,1
9.31,3.89,-0.37,-0.96,-0.51,-2.66,1095.11,1485.31,1,8,1
5.87,4.59,0.69,-1.21,-0.53,-2.96,772.39,1005.36,0,9,1
4.29,7.43,0.08,-1.04,-0.47,-2.33,1110.1,1415.02,1,9,1
1.59,7.76,1.46,-1.29,-0.36,-2.42,1055.5,1351.91,0,10,1
-1.97,6.47,3.37,-0.72,1.38,-1.82,884.61,1139.93,0,10,1
-4.58,7.79,4.48,-0.09,0.74,-0.16,772.83,877.17,0,10,1
-3.2,7.62,3.79,0.48,0.17,1.69,641.91,742.46,0,10,1
-1.22,8.58,2.85,0.89,0.54,2.83,638.45,719.64,0,10,1
4.48,6.24,1.13,0.77,0.54,3.03,631.71,783.46,0,10,1
7.99,6.06,0.69,0.8,-0.02,2.57,598.18,802.13,0,10,1
9.38,4.8,0.06,0.75,0.5,2.16,543.4,697.19,0,10,1
11.29,3.18,-0.48,0.47,0.05,1.62,443.5,540.05,0,10,1
11.24,2.4,-0.62,0.17,-0.12,1.17,329.38,369.01,0,10,1
10.28,1.54,0.34,-0.04,0.17,0.92,301.67,347.93,0,10,1
12.35,0.46,0.3,-0.06,-0.18,0.46,262.28,311.61,0,10,1
10.31,0.82,0.05,0.03,-0.16,-0.18,241.07,270.02,0,10,1
9.12,1.3,0.07,-0.03,-0.05,0.04,209.47,255.35,0,10,1
10.16,1.25,-0.15,-0.14,0.25,0.04,175.99,224.36,0,10,1
10.1,1.24,0.15,-0.16,0.06,-0.1,278.76,405.47,0,10,1
10.79,1.3,-0.33,-0.08,-0.25,-0.2,732.43,1162.18,0,10,1
12.82,1.6,-1.01,-0.27,-0.02,-0.94,423.44,564.29,0,10,1
11.23,2.77,-1.53,-0.55,-0.31,-1.72,684.46,1033.77,0,10,1
9.81,4.0,-1.16,-1.05,0.02,-2.24,622.94,845.84,0,10,1
8.07,5.18,-0.39,-1.26,-0.28,-2.61,628.23,910.07,0,10,1
4.76,6.39,1.33,-1.16,-0.4,-2.87,755.45,994.76,0,10,1
1.48,7.19,1.53,-1.21,-0.66,-2.65,941.68,1285.23,0,10,1
-1.41,6.78,3.54,-0.97,0.14,-1.98,870.67,1130.36,0,10,1
-2.76,7.77,4.53,-0.3,0.26,-0.55,651.71,736.3,0,10,1
-3.99,8.52,4.1,0.31,0.35,0.85,657.74,737.45,0,10,1
-2.23,8.82,3.07,0.7,0.43,2.11,592.12,684.73,0,10,1
1.28,8.1,1.72,0.91,0.45,2.71,619.22,719.91,0,10,1
4.8,6.7,0.17,0.88,0.21,2.9,492.06,619.07,0,10,1
7.33,4.7,0.34,0.87,0.66,2.84,659.12,853.49,0,10,1
9.71,2.72,0.16,0.78,0.48,2.52,527.67,735.23,0,10,1
11.5,1.42,-0.58,0.41,0.02,2.01,441.31,572.87,0,10,1
13.01,-0.05,0.34,0.11,-0.32,1.13,347.04,406.55,0,10,1
11.27,0.27,0.57,-0.06,0.08,-0.13,347.68,420.69,0,10,1
9.85,0.88,-0.02,0.06,0.02,-0.01,298.63,328.56,0,10,1
10.67,0.36,0.14,0.01,0.0,0.03,252.49,293.27,0,10,1
10.17,0.78,-0.18,-0.08,-0.07,-0.05,215.02,245.47,0,10,1
10.15,0.83,-0.33,-0.09,-0.0,-0.02,222.02,309.85,0,10,1
11.44,0.82,-0.73,-0.24,-0.28,-0.31,533.32,794.71,0,10,1
12.41,1.28,-0.79,-0.33,-0.09,-1.05,818.0,1247.07,0,10,1
11.95,2.67,-1.19,-0.54,0.24,-1.89,468.36,620.63,0,10,1
9.92,3.49,-0.72,-1.1,0.02,-2.41,739.23,1039.32,0,10,1
7.36,5.05,0.42,-1.39,-0.32,-2.84,592.88,771.92,0,10,1
2.89,6.03,3.09,-1.21,-0.18,-2.83,973.23,1317.89,0,10,1
2.72,6.07,2.46,-1.25,-0.6,-2.52,1181.24,1454.43,1,10,1
-1.58,7.1,3.92,-0.69,0.64,-1.93,866.64,1078.13,0,11,1
-4.26,7.79,5.36,0.05,0.32,0.13,801.83,923.21,0,11,1
-3.11,8.51,4.3,0.64,0.47,1.48,683.75,756.44,0,11,1
0.02,7.02,2.79,0.78,0.03,2.41,573.24,643.41,0,11,1
3.74,7.51,0.81,0.82,0.48,2.52,507.99,575.36,0,11,1
6.13,6.51,0.92,0.78,0.05,2.6,500.75,551.74,0,11,1
9.05,5.75,0.4,0.53,0.47,2.52,527.21,726.95,0,11,1
10.43,3.31,0.5,0.52,0.12,1.9,407.67,524.38,0,11,1
9.67,1.93,0.44,0.17,0.18,1.43,351.94,407.0,0,11,1
12.46,1.7,-0.03,-0.03,0.01,0.96,320.09,385.41,0,11,1
11.71,1.38,0.48,-0.05,-0.15,-0.05,327.84,413.21,0,11,1
9.43,1.53,0.75,-0.0,0.0,-0.06,274.02,341.04,0,11,1
9.43,1.53,0.75,-0.0,0.0,-0.06,225.15,279.04,0,11,1
10.17,1.7,0.13,0.01,0.02,0.07,195.43,246.56,0,11,1
10.07,1.42,-0.12,-0.08,0.01,-0.04,156.61,179.47,0,11,1
9.7,1.76,0.22,-0.09,0.0,-0.01,225.32,327.81,0,11,1
10.16,1.67,0.34,-0.07,-0.1,0.03,347.83,485.36,0,11,1
11.41,1.65,-0.05,-0.12,-0.23,-0.18,478.42,800.02,0,11,1
12.03,2.21,-0.48,-0.26,0.19,-0.92,639.24,846.24,0,11,1
12.38,3.08,-1.49,-0.51,0.38,-1.81,596.45,855.53,0,11,1
10.25,4.6,-0.53,-0.9,-0.47,-2.6,689.0,989.15,0,11,1
6.4,5.21,1.0,-1.12,-0.15,-3.12,1057.39,1462.53,1,11,1
2.81,5.64,0.44,-0.9,-0.06,-3.09,1248.52,1525.85,1,11,1
-0.62,8.14,1.85,-0.75,0.33,-2.46,987.39,1235.41,0,12,1
-2.82,6.28,4.05,-0.69,0.31,-2.03,921.93,1068.52,0,12,1
-5.62,7.86,5.11,-0.01,0.2,-0.08,683.05,765.58,0,12,1
-4.57,7.86,4.26,0.39,0.09,1.51,698.41,825.2,0,12,1
-2.19,7.7,3.02,0.72,-0.03,2.68,717.62,866.5,0,12,1
2.86,6.83,1.67,0.93,0.41,3.13,837.41,1093.42,0,12,1
7.7,7.5,0.22,0.77,0.33,2.84,698.06,844.33,0,12,1
9.5,5.43,0.87,0.58,0.61,2.2,611.48,738.95,0,12,1
9.66,3.54,0.58,0.41,0.25,1.56,709.26,942.04,0,12,1
9.49,2.78,-0.19,0.19,0.18,1.22,626.23,808.99,0,12,1
10.68,2.21,-0.51,0.08,0.07,0.92,362.87,427.15,0,12,1
11.42,1.84,-0.58,0.05,0.15,0.57,285.88,318.34,0,12,1
10.64,1.46,-0.1,-0.03,-0.04,0.3,277.36,346.48,0,12,1
10.35,1.44,0.55,0.0,0.22,-0.04,181.2,208.15,0,12,1
9.76,1.34,0.42,0.0,-0.09,-0.03,192.9,224.83,0,12,1
10.02,1.59,0.21,-0.07,-0.21,0.04,215.66,298.8,0,12,1
10.1,1.47,0.26,-0.1,0.1,-0.01,211.09,259.51,0,12,1
9.89,1.52,0.25,-0.06,0.03,0.0,187.52,239.16,0,12,1
10.18,1.55,-0.2,-0.01,0.09,-0.0,151.36,172.43,0,12,1
9.66,1.56,0.11,-0.07,0.04,0.01,140.62,157.01,0,12,1
10.02,1.6,0.09,-0.1,-0.02,0.01,112.53,137.37,0,12,1
10.14,1.48,0.07,-0.1,0.04,-0.05,127.5,167.42,0,12,1
9.96,1.72,0.15,-0.06,0.0,0.0,123.16,146.17,0,12,1
9.88,1.66,0.13,-0.05,0.01,0.02,127.72,162.54,0,12,1
10.07,1.63,0.26,-0.08,0.03,-0.01,233.69,346.22,0,12,1
10.57,1.78,-0.27,-0.07,-0.01,-0.08,419.23,652.91,0,12,1
9.43,1.95,-0.28,-0.08,0.16,-0.13,202.97,235.12,0,12,1
9.6,2.11,-0.27,-0.07,0.02,0.14,169.94,191.52,0,12,1
10.26,1.7,-0.09,-0.07,0.1,0.09,170.42,199.43,0,12,1
9.96,1.91,-0.17,-0.09,0.02,-0.07,192.34,223.94,0,12,1
9.49,1.93,0.24,-0.1,0.02,-0.02,226.08,301.23,0,12,1
10.26,1.96,-0.07,-0.07,0.0,0.04,178.85,221.64,0,12,1
10.15,1.95,-0.13,-0.07,0.1,-0.01,204.92,306.41,0,12,1
9.78,1.96,0.06,-0.08,0.02,0.03,161.83,191.21,0,12,1
9.98,1.96,-0.43,-0.07,0.11,0.02,163.21,202.94,0,12,1
9.68,1.92,-0.03,-0.07,0.02,-0.01,173.9,218.09,0,12,1
9.88,2.02,-0.01,-0.05,-0.02,0.02,166.46,268.76,0,12,1
9.96,2.12,-0.16,-0.11,-0.0,0.08,140.32,170.48,0,12,1
9.84,1.87,-0.19,-0.11,0.1,0.11,163.09,188.31,0,12,1
9.92,1.7,0.05,-0.1,-0.0,0.04,135.57,168.01,0,12,1
9.81,1.86,-0.01,-0.06,0.01,0.01,164.95,221.01,0,12,1
10.07,1.81,-0.07,-0.1,0.04,0.06,146.26,205.82,0,12,1
10.17,1.87,-0.26,-0.12,0.0,0.06,190.97,254.61,0,12,1
10.54,1.94,-0.05,-0.08,-0.08,-0.02,639.92,1004.37,0,12,1
13.78,1.97,-0.32,-0.2,-0.19,-0.95,399.45,563.52,0,12,1
12.27,3.0,-1.19,-0.46,0.19,-2.13,696.68,996.98,0,12,1
10.33,4.56,-0.62,-1.07,-0.32,-2.75,935.37,1239.79,0,12,1
6.71,5.16,-0.38,-1.18,-0.41,-3.19,889.46,1220.42,0,12,1
1.94,5.67,1.64,-1.34,-0.76,-3.05,1363.43,1710.66,1,12,1
-0.49,5.96,3.31,-1.04,0.03,-2.46,883.03,1101.11,0,13,1
-2.62,7.06,4.2,-0.66,0.33,-1.95,1062.75,1274.41,0,13,1
-4.59,7.56,4.38,-0.17,-0.11,-0.5,939.69,1128.96,0,13,1
-4.83,8.51,3.95,0.27,0.18,1.27,823.61,940.74,0,13,1
-3.46,7.58,4.14,0.6,0.02,2.32,797.98,936.29,0,13,1
0.71,7.48,2.68,0.89,0.14,2.85,964.17,1174.66,0,13,1
5.06,7.55,0.68,1.05,0.05,2.73,933.36,1119.25,0,13,1
7.97,6.54,-0.42,1.1,0.26,2.22,956.64,1142.73,0,13,1
8.44,5.79,-0.79,0.65,0.21,1.78,751.1,913.4,0,13,1
10.41,4.52,-1.48,0.31,0.46,1.38,743.26,870.59,0,13,1
9.83,3.59,-1.05,0.07,0.13,0.95,597.03,639.07,0,13,1
9.88,2.59,-0.59,0.04,-0.16,1.06,436.44,477.75,0,13,1
11.47,1.72,-1.58,-0.01,0.25,0.79,318.69,415.68,0,13,1
10.9,1.41,-0.33,-0.13,0.01,0.21,271.37,310.51,0,13,1
9.82,1.58,-0.07,-0.02,0.06,-0.03,193.06,218.37,0,13,1
9.79,1.51,-0.35,-0.04,-0.06,0.07,237.06,321.4,0,13,1
10.22,1.67,-0.12,-0.07,0.06,-0.07,292.42,365.87,0,13,1
10.11,1.78,-0.26,-0.09,0.09,-0.06,290.49,389.84,0,13,1
10.84,1.77,-0.35,-0.17,-0.1,-0.27,484.38,745.93,0,13,1
12.37,2.17,-0.37,-0.29,0.16,-0.99,387.82,494.22,0,13,1
11.54,3.24,-0.42,-0.38,-0.09,-1.77,561.53,886.88,0,13,1
9.61,4.17,-0.58,-0.82,0.25,-2.57,595.54,811.32,0,13,1
6.8,5.52,-0.45,-1.24,-0.42,-3.18,989.91,1288.79,0,13,1
1.99,5.13,1.4,-1.26,0.21,-3.25,1538.29,1901.56,1,13,1
-0.38,6.91,3.07,-0.95,-0.61,-2.5,942.28,1163.85,0,14,1
-2.76,7.31,4.59,-0.7,0.08,-2.08,1008.59,1230.72,0,14,1
-4.48,8.19,4.77,-0.29,0.16,-0.85,940.43,1102.78,0,14,1
-5.29,8.11,4.43,0.2,0.09,0.9,821.11,916.81,0,14,1
-3.98,7.51,3.83,0.55,0.07,2.13,725.9,863.69,0,14,1
-0.34,7.48,2.68,0.81,0.18,2.83,752.37,906.04,0,14,1
3.68,7.65,1.47,0.87,0.62,2.62,778.41,947.94,0,14,1
6.45,7.12,0.4,0.9,0.42,2.35,852.28,998.14,0,14,1
8.73,6.04,0.1,0.76,0.35,2.04,865.17,1032.47,0,14,1
10.23,5.35,-0.63,0.69,-0.22,1.45,740.84,864.79,0,14,1
9.09,4.58,-0.87,0.28,0.31,1.09,634.19,695.32,0,14,1
9.09,3.09,-0.31,-0.01,0.2,0.97,471.37,575.13,0,14,1
9.92,2.74,-0.58,-0.13,0.2,0.87,401.58,454.66,0,14,1
10.95,1.8,0.27,-0.03,0.16,0.52,310.4,371.24,0,14,1
10.61,1.6,-0.1,-0.0,0.11,0.06,230.56,258.04,0,14,1
10.06,1.88,0.06,0.01,0.0,0.03,231.85,269.97,0,14,1
10.51,1.86,-0.43,-0.04,0.02,0.03,276.38,386.65,0,14,1
9.79,1.91,-0.29,-0.16,0.08,0.04,324.2,478.5,0,14,1
9.79,1.91,-0.29,-0.16,0.08,0.04,320.97,442.99,0,14,1
10.62,1.84,0.08,-0.16,-0.03,-0.03,715.27,1064.53,0,14,1
12.68,2.02,-0.24,-0.22,-0.29,-0.62,695.08,1076.08,0,14,1
12.45,3.22,-1.42,-0.56,-0.3,-1.42,579.77,800.09,0,14,1
10.55,3.65,-1.21,-1.01,-0.33,-2.2,795.04,1124.49,0,14,1
7.59,4.94,-0.32,-1.04,-0.12,-2.82,1260.4,1660.34,1,14,1
4.51,5.68,0.97,-1.05,-0.26,-2.93,1037.42,1264.14,0,15,1
0.71,6.22,1.36,-0.63,-0.51,-2.57,1112.28,1368.5,0,15,1
0.86,7.51,1.95,-0.64,0.53,-2.41,989.68,1198.47,0,15,1
-4.18,7.23,2.34,-0.53,-0.11,-1.57,1043.88,1198.65,0,15,1
-5.81,8.05,3.42,0.1,0.02,0.86,835.34,961.15,0,15,1
-4.26,9.16,3.15,0.68,0.21,2.68,857.79,987.34,0,15,1
1.39,9.5,1.19,0.92,0.55,3.01,823.14,974.91,0,15,1
5.18,7.28,0.2,0.91,0.27,2.74,915.82,1165.52,0,15,1
6.67,5.61,-1.33,0.72,-0.58,2.53,803.73,946.09,0,15,1
8.55,4.78,-1.61,0.52,0.51,2.0,695.6,832.52,0,15,1
11.06,3.12,-1.32,0.29,0.09,1.3,556.82,684.0,0,15,1
9.81,2.6,-1.31,0.17,-0.16,0.95,453.39,514.13,0,15,1
10.08,1.65,-0.84,0.07,-0.02,0.93,317.76,355.1,0,15,1
10.65,1.13,-1.24,0.03,0.06,0.64,322.52,399.4,0,15,1
11.67,1.0,-1.85,-0.03,-0.15,0.26,281.58,362.33,0,15,1
10.49,0.96,-1.47,-0.01,0.01,0.0,324.6,438.32,0,15,1
10.12,1.18,-1.64,-0.09,-0.01,-0.02,703.93,1003.08,0,15,1
10.11,0.96,-1.4,-0.1,0.08,-0.06,763.03,1120.86,0,15,1
9.99,1.32,-1.21,-0.09,0.06,-0.0,500.95,588.07,0,15,1
11.02,1.03,-1.14,-0.05,-0.13,-0.19,517.36,618.35,0,15,1
11.78,1.35,-1.61,-0.15,0.25,-0.97,553.78,691.33,0,15,1
10.68,2.56,-1.35,-0.32,-0.01,-1.29,735.62,982.29,0,15,1
11.41,3.68,-2.06,-0.7,0.01,-1.91,636.42,876.71,0,15,1
10.15,5.27,-2.37,-1.1,0.03,-2.7,1036.55,1364.12,0,15,1
4.51,5.72,-0.28,-0.96,-0.03,-3.13,1200.93,1518.54,1,15,1
1.92,7.03,1.46,-1.02,-0.58,-2.9,915.54,1143.67,0,16,1
-0.23,8.86,1.6,-0.87,-0.64,-2.18,1122.0,1424.71,1,16,1
-3.36,7.55,3.76,-0.46,-0.37,-1.11,1097.82,1324.92,0,17,1
-4.44,9.11,3.55,0.16,0.18,0.59,898.37,975.48,0,17,1
-3.52,8.23,2.95,0.55,0.17,1.94,769.0,850.2,0,17,1
0.15,8.15,1.61,0.9,0.32,2.86,737.04,844.25,0,17,1
5.36,7.3,-0.51,1.07,0.4,2.87,732.1,888.52,0,17,1
7.91,6.2,-0.41,0.83,0.33,2.33,707.78,868.46,0,17,1
9.05,4.82,-1.12,0.63,0.19,1.81,670.35,803.45,0,17,1
9.74,4.05,-1.59,0.32,-0.04,1.55,525.18,585.78,0,17,1
10.74,3.16,-1.45,0.1,0.11,1.04,461.52,572.99,0,17,1
10.56,2.25,-1.15,-0.02,-0.11,0.59,334.64,382.73,0,17,1
9.71,2.17,-0.74,-0.02,0.06,0.39,249.54,287.06,0,17,1
11.14,1.73,-1.09,0.06,-0.1,0.3,186.93,215.12,0,17,1
10.62,1.64,-1.07,0.0,0.05,0.0,202.57,257.5,0,17,1
9.79,1.82,-1.35,-0.03,0.13,0.01,210.3,269.53,0,17,1
10.3,1.82,-1.65,-0.1,0.03,0.04,219.5,294.26,0,17,1
10.02,1.68,-1.07,-0.12,-0.07,0.02,245.16,296.56,0,17,1
10.28,1.98,-1.15,-0.19,-0.13,-0.07,248.51,324.28,0,17,1
11.53,1.94,-1.28,-0.15,-0.11,-0.3,539.84,741.72,0,17,1
12.55,2.17,-1.49,-0.22,1.01,-1.18,509.75,685.89,0,17,1
11.29,3.71,-2.19,-0.55,-0.54,-1.72,502.42,709.7,0,17,1
9.21,4.65,-0.82,-0.82,0.12,-2.16,562.48,695.03,0,17,1
7.67,6.46,-0.99,-1.11,-0.03,-2.58,717.24,955.54,0,17,1
3.79,6.92,1.01,-1.03,-0.31,-2.76,568.04,694.9,0,17,1
0.69,7.84,1.29,-0.99,-1.22,-2.18,777.34,1047.58,0,17,1
-0.11,7.32,2.39,-0.8,0.29,-1.67,879.41,1094.63,0,17,1
-1.96,8.18,3.43,-0.48,-0.25,-0.81,1178.1,1549.29,1,17,1
-3.82,8.97,3.91,0.12,0.24,0.42,929.46,1080.78,0,18,1
-3.17,8.67,3.06,0.64,0.53,1.65,788.67,911.8,0,18,1
0.23,7.96,1.52,0.77,-0.01,2.41,646.15,776.94,0,18,1
4.45,8.34,0.16,0.87,0.46,2.36,708.9,786.43,0,18,1
6.19,7.4,-0.01,0.72,0.43,1.91,622.27,705.94,0,18,1
7.42,6.57,-0.61,0.67,0.37,1.61,508.7,575.9,0,18,1
8.5,5.67,-0.85,0.59,0.08,1.46,500.03,601.89,0,18,1
9.21,4.72,-1.73,0.39,0.26,1.17,381.38,412.26,0,18,1
9.36,3.69,-1.08,0.24,0.04,1.09,310.14,342.29,0,18,1
10.45,2.78,-1.49,0.12,0.23,0.87,325.28,416.72,0,18,1
10.8,2.28,-1.59,0.06,-0.04,0.65,265.38,322.14,0,18,1
11.22,1.96,-1.56,-0.0,-0.1,0.24,198.67,227.93,0,18,1
9.51,1.71,-0.97,-0.08,-0.05,-0.1,193.48,220.65,0,18,1
9.55,1.96,-1.1,-0.04,0.09,0.03,177.31,207.58,0,18,1
10.31,1.91,-1.53,-0.06,0.07,0.06,191.59,232.92,0,18,1
9.93,1.87,-1.32,-0.11,0.05,-0.04,165.63,193.02,0,18,1
10.09,2.15,-1.48,-0.1,0.03,-0.02,315.23,470.69,0,18,1
10.43,2.19,-1.45,-0.14,-0.05,-0.16,250.67,313.3,0,18,1
11.48,2.4,-1.76,-0.26,-0.04,-0.59,546.45,828.83,0,18,1
11.81,2.68,-1.91,-0.38,0.93,-1.7,327.71,435.06,0,18,1
9.44,4.63,-1.83,-0.76,-0.71,-2.11,383.21,487.72,0,18,1
8.08,5.42,-0.12,-1.01,-0.12,-2.55,676.7,1021.39,0,18,1
4.96,6.41,0.15,-1.18,-0.12,-2.9,605.17,802.64,0,18,1
2.42,7.94,0.68,-1.18,-0.86,-2.48,707.61,968.39,0,18,1
-0.56,7.81,2.63,-1.15,-0.7,-2.25,821.62,1138.89,0,18,1
-1.96,7.19,3.9,-0.75,-0.56,-1.59,769.81,1000.34,0,18,1
-4.4,8.31,4.42,-0.25,-0.05,-0.62,981.66,1346.44,0,18,1
-4.86,8.26,4.38,0.15,0.48,0.32,956.25,1213.07,0,18,1
-4.15,7.68,3.13,0.44,0.14,1.54,861.51,1033.57,0,18,1
-2.28,7.96,2.4,0.87,0.23,2.4,890.06,1145.68,0,18,1
0.95,7.97,1.08,1.26,0.12,2.69,968.53,1237.77,0,18,1
4.01,7.38,0.43,1.12,0.72,2.77,1093.53,1299.95,0,18,1
7.59,6.45,-1.0,0.93,0.4,2.48,983.88,1147.05,0,18,1
9.82,4.91,-1.47,0.81,0.21,2.17,905.13,1103.78,0,18,1
10.4,3.08,-1.69,0.48,-0.02,1.83,769.77,849.41,0,18,1
11.6,1.63,-2.19,0.3,-0.01,1.37,640.48,767.46,0,18,1
11.81,0.94,-1.97,0.05,0.04,0.69,547.82,614.5,0,18,1
11.61,0.9,-2.14,-0.09,0.16,0.14,458.22,514.27,0,18,1
9.92,1.01,-1.54,-0.09,0.06,-0.09,411.51,497.94,0,18,1
9.99,1.25,-1.87,-0.07,0.03,0.02,503.82,633.55,0,18,1
10.22,1.28,-1.68,-0.15,0.16,0.0,487.01,637.05,0,18,1
10.11,1.12,-1.05,-0.14,0.11,-0.03,515.39,645.03,0,18,1
10.27,1.24,-0.92,-0.08,-0.08,-0.03,498.84,603.04,0,18,1
10.27,1.24,-0.92,-0.08,-0.08,-0.03,554.35,696.59,0,18,1
11.29,1.36,-1.67,-0.17,-0.07,-0.33,621.89,793.2,0,18,1
11.41,1.78,-1.34,-0.25,-0.19,-0.74,597.56,730.59,0,18,1
11.58,2.5,-2.27,-0.3,-0.05,-1.38,596.93,759.3,0,18,1
10.59,3.7,-2.63,-0.71,0.28,-2.06,582.89,723.73,0,18,1
7.92,5.34,-1.89,-0.97,-0.03,-2.45,739.48,951.12,0,18,1
4.78,6.81,-0.29,-1.08,-0.57,-2.49,809.77,1061.69,0,18,1
3.17,7.7,0.0,-1.16,-0.42,-2.46,964.75,1242.96,0,18,1
0.6,7.8,1.66,-1.02,-0.27,-2.2,1231.83,1499.3,1,18,1
-2.55,8.07,3.9,-0.69,-0.33,-1.58,1172.83,1496.65,1,18,1
-2.85,8.87,3.23,-0.25,0.54,-1.01,1074.24,1329.85,0,19,1
-3.84,8.26,3.44,0.12,0.28,0.17,1158.63,1345.62,0,19,1
-4.17,8.92,2.76,0.44,0.07,1.21,1055.9,1253.28,0,19,1
-2.36,8.57,2.47,0.8,0.33,2.01,1116.01,1300.47,0,19,1
1.33,8.3,0.98,0.98,0.02,2.36,1053.6,1199.55,0,19,1
4.01,7.3,-0.22,1.04,0.32,2.28,978.21,1124.62,0,19,1
6.76,6.94,-1.17,0.9,0.38,2.03,821.0,972.05,0,19,1
7.64,6.02,-1.77,0.74,0.17,1.88,803.28,881.22,0,19,1
8.94,4.49,-1.88,0.53,0.15,1.84,662.39,760.28,0,19,1
10.27,2.7,-2.28,0.36,0.24,1.7,523.32,628.25,0,19,1
11.38,1.46,-2.36,0.19,0.32,1.17,396.62,518.41,0,19,1
11.98,0.83,-2.42,-0.03,0.42,0.42,288.17,302.91,0,19,1
10.33,1.1,-1.77,-0.11,-0.09,-0.13,188.45,204.39,0,19,1
9.17,1.36,-1.53,-0.03,0.07,-0.01,164.1,198.13,0,19,1
10.16,1.34,-1.56,-0.05,-0.13,0.04,174.1,230.1,0,19,1
10.39,1.26,-1.79,-0.08,-0.01,-0.02,130.8,164.24,0,19,1
10.05,1.49,-1.86,-0.1,0.1,-0.03,133.69,165.64,0,19,1
9.73,1.52,-1.54,-0.05,0.1,0.01,122.97,150.14,0,19,1
9.99,1.47,-1.71,-0.11,0.11,-0.01,292.59,466.04,0,19,1
11.24,1.62,-1.9,-0.2,-0.18,-0.27,558.8,848.0,0,19,1
11.53,2.0,-2.23,-0.39,-0.09,-0.94,442.11,632.49,0,19,1
11.99,2.91,-2.57,-0.71,-0.03,-1.54,382.98,480.09,0,19,1
10.05,3.88,-2.01,-0.97,0.41,-2.39,376.7,465.14,0,19,1
7.38,5.49,-1.18,-1.06,-0.03,-2.66,550.28,865.66,0,19,1
3.92,6.39,0.31,-1.0,-0.22,-2.73,999.78,1291.85,0,19,1
0.86,7.29,0.72,-1.0,-0.37,-2.51,905.5,1180.97,0,19,1
-1.13,7.75,2.2,-0.98,-0.18,-2.1,830.47,1018.93,0,19,1
-2.66,7.7,3.44,-0.75,-0.27,-1.54,757.39,956.83,0,19,1
-4.84,7.99,4.43,-0.31,0.01,-0.79,1020.3,1297.38,0,19,1
-5.87,8.27,4.21,0.1,0.43,0.12,758.58,874.18,0,19,1
-5.96,7.85,3.97,0.49,0.23,1.34,866.51,1084.39,0,19,1
-2.86,7.68,2.81,1.11,0.1,2.55,979.1,1271.27,0,19,1
1.73,8.04,0.6,1.2,0.23,2.79,988.32,1214.75,0,19,1
4.33,6.71,-0.68,1.09,0.13,2.71,849.15,993.68,0,19,1
7.26,6.18,-1.76,0.93,0.14,2.61,801.71,955.43,0,19,1
10.44,4.32,-2.42,0.58,0.15,2.17,850.86,929.83,0,19,1
10.4,3.03,-1.96,0.32,0.13,1.54,635.19,671.74,0,19,1
9.79,2.28,-1.54,0.27,0.28,1.27,437.37,498.51,0,19,1
12.05,1.55,-2.21,0.15,0.25,0.76,347.62,385.42,0,19,1
11.06,1.02,-1.73,0.01,0.29,0.12,236.69,283.46,0,19,1
10.08,1.3,-1.58,-0.04,-0.05,-0.07,249.09,285.97,0,19,1
9.85,1.56,-1.52,-0.07,-0.02,0.03,206.52,279.07,0,19,1
9.84,1.45,-1.55,-0.1,0.2,0.1,291.35,450.87,0,19,1
10.06,1.28,-1.54,-0.14,0.06,0.1,274.08,394.27,0,19,1
9.95,1.17,-1.46,-0.13,0.02,0.11,252.86,349.48,0,19,1
10.35,1.5,-1.22,-0.09,-0.14,0.18,372.18,509.07,0,19,1
12.16,0.98,-2.61,-0.24,-0.15,-0.07,609.4,956.11,0,19,1
11.49,0.62,-2.82,-0.42,0.01,-0.92,549.1,826.33,0,19,1
11.6,1.64,-2.53,-0.72,0.13,-1.67,554.82,719.57,0,19,1
10.39,3.29,-2.6,-1.17,-0.1,-2.52,955.36,1304.67,0,19,1
7.04,5.88,-1.51,-1.46,-0.05,-3.02,1132.64,1518.87,1,19,1
3.62,5.81,1.1,-1.4,0.26,-3.22,1108.41,1410.35,1,19,1
-0.02,7.77,0.83,-0.98,-0.07,-2.63,1301.73,1552.11,1,19,1
-1.55,8.04,2.17,-0.69,-0.38,-1.47,1461.81,1628.89,1,19,1
-3.98,8.91,3.39,-0.19,0.01,-0.22,1298.48,1470.65,1,19,1
-4.01,9.2,3.29,0.26,-0.1,1.18,1206.35,1359.67,1,19,1
-1.99,8.63,2.72,0.65,-0.04,2.26,1107.13,1259.47,0,20,1
2.62,7.66,0.83,0.8,-0.35,2.94,986.27,1122.44,0,20,1
7.08,6.05,-0.22,0.74,-0.01,2.65,1189.4,1441.3,1,20,1
8.5,4.97,-0.3,0.72,0.2,2.05,1198.19,1421.46,1,20,1
9.25,4.41,-0.51,0.58,0.58,1.49,1241.98,1394.61,1,20,1
9.94,3.2,-0.59,0.64,0.07,1.34,902.24,1045.45,0,21,1
10.02,2.12,-1.13,0.68,0.07,1.21,897.61,971.06,0,21,1
10.21,1.15,-2.47,0.47,0.27,1.2,580.54,627.48,0,21,1
11.2,0.35,-2.17,0.23,0.34,1.11,412.18,478.64,0,21,1
11.8,-1.02,-1.05,0.02,0.09,0.32,329.25,378.23,0,21,1
9.89,-0.38,-1.27,-0.05,-0.04,-0.19,364.69,456.01,0,21,1
9.83,-0.25,-1.41,-0.14,-0.06,0.03,509.43,698.31,0,21,1
10.13,-0.48,-0.81,-0.19,0.02,0.06,1453.92,1860.24,1,21,1
10.4,-0.4,-0.75,-0.11,0.06,-0.04,973.96,1275.19,0,22,1
10.43,-0.17,-1.21,-0.07,-0.07,-0.02,724.56,827.55,0,22,1
10.72,-0.14,-1.12,-0.12,-0.05,-0.15,816.39,952.11,0,22,1
12.07,0.08,-1.25,-0.24,-0.18,-0.58,860.94,1063.55,0,22,1
11.01,0.71,-1.44,-0.35,-0.02,-1.08,567.13,669.35,0,22,1
11.32,2.04,-1.83,-0.49,-0.05,-1.45,707.0,939.2,0,22,1
11.34,3.34,-2.16,-0.83,-0.16,-2.1,1121.25,1403.57,1,22,1
8.55,4.47,-1.19,-1.01,-0.18,-2.68,660.22,765.87,0,23,1
7.09,6.15,-0.8,-1.21,0.04,-3.18,678.73,775.7,0,23,1
-0.34,6.34,1.72,-1.25,-1.21,-2.9,1286.01,1640.9,1,23,1
-0.72,9.61,1.25,-0.84,-0.47,-1.78,1382.8,1653.87,1,23,1
-2.88,8.19,2.98,-0.7,-0.35,-1.24,1371.04,1571.19,1,23,1
-4.16,8.46,4.32,-0.0,0.26,0.39,1152.12,1287.23,0,24,1
-3.31,8.45,3.7,0.6,0.58,1.49,978.91,1093.52,0,24,1
0.57,8.6,1.77,0.96,0.4,2.37,903.53,991.19,0,24,1
3.62,8.05,0.69,0.88,0.5,2.42,877.39,1043.5,0,24,1
5.12,6.33,0.29,0.82,0.24,2.39,1445.88,1659.54,1,24,1
7.43,5.85,-0.36,0.85,0.38,2.32,1349.68,1502.72,1,24,1
10.48,3.76,-0.83,0.87,-0.15,1.83,1073.18,1227.39,0,25,1
9.23,2.55,-1.52,0.6,0.32,1.51,1001.25,1062.53,0,25,1
10.56,1.66,-1.74,0.18,0.3,1.26,772.49,850.35,0,25,1
11.57,0.78,-0.76,0.03,0.28,0.7,514.62,558.01,0,25,1
10.92,0.56,-0.86,-0.01,-0.29,0.36,357.32,407.85,0,25,1
10.92,0.56,-0.86,-0.01,-0.29,0.36,363.26,438.27,0,25,1
10.56,0.47,-1.02,0.01,0.11,0.15,879.43,1318.29,0,25,1
10.39,0.48,-1.26,-0.02,0.01,-0.03,433.97,521.0,0,25,1
9.84,0.52,-1.1,-0.1,0.0,-0.02,383.89,438.92,0,25,1
10.24,0.58,-1.11,-0.12,-0.01,0.05,348.07,431.26,0,25,1
10.36,0.5,-0.96,-0.12,0.01,-0.0,316.33,382.67,0,25,1
10.47,0.6,-0.86,-0.08,-0.08,-0.1,461.61,747.91,0,25,1
12.69,1.06,-2.36,-0.15,-0.33,-0.72,599.49,855.08,0,25,1
11.5,1.72,-2.2,-0.47,-0.04,-1.37,1379.5,1755.18,1,25,1
10.82,2.93,-2.21,-0.77,0.21,-2.02,946.5,1228.35,0,26,1
9.37,4.08,-1.11,-1.08,-0.09,-2.5,778.5,898.74,0,26,1
6.61,5.42,-0.33,-1.07,-0.51,-2.74,876.96,1116.35,0,26,1
3.41,6.9,0.57,-1.19,-0.8,-2.77,1467.16,1781.4,1,26,1
2.22,8.59,1.29,-1.06,-0.17,-2.72,1321.17,1564.69,1,26,1
-3.59,5.88,3.86,-0.66,-0.4,-2.04,1191.89,1365.35,0,27,1
-5.31,9.05,3.24,-0.13,0.09,-0.24,1196.38,1343.36,0,27,1
-4.81,8.72,3.15,0.25,0.26,1.03,931.98,1034.0,0,27,1
-3.19,7.92,2.28,0.61,0.24,2.19,948.3,1092.13,0,27,1
1.08,7.99,1.26,0.78,-0.14,2.82,940.65,1109.31,0,27,1
4.7,7.46,0.31,0.85,0.33,2.78,1272.94,1526.42,1,27,1
7.35,6.59,0.38,0.78,0.42,2.36,1348.76,1520.15,1,27,1
8.98,4.93,-0.63,0.69,0.35,1.99,1121.47,1267.53,0,28,1
10.44,3.42,-1.15,0.56,0.12,1.58,936.32,1076.39,0,28,1
10.69,2.23,-1.52,0.32,0.06,1.03,759.82,875.13,0,28,1
9.76,2.03,-1.58,0.22,-0.03,1.01,701.26,755.87,0,28,1
11.53,1.18,-1.8,0.19,0.2,0.82,494.01,551.68,0,28,1
11.32,0.53,-1.37,-0.01,0.24,0.19,460.31,574.91,0,28,1
9.83,0.68,-0.88,-0.12,0.04,-0.08,524.19,652.25,0,28,1
9.84,0.81,-0.85,-0.07,0.05,0.04,525.14,626.36,0,28,1
10.49,0.84,-1.12,-0.07,0.07,0.02,519.68,591.94,0,28,1
10.19,0.85,-1.04,-0.07,0.11,-0.03,425.53,475.29,0,28,1
10.02,0.96,-0.95,-0.09,0.02,0.01,481.18,562.28,0,28,1
11.2,0.88,-1.4,-0.14,-0.15,-0.19,694.3,976.77,0,28,1
11.79,1.22,-1.79,-0.27,0.12,-0.74,725.28,991.41,0,28,1
11.07,1.97,-1.42,-0.41,-0.0,-1.29,748.08,1013.21,0,28,1
10.73,3.19,-1.61,-0.67,-0.14,-1.82,854.94,1073.71,0,28,1
8.99,4.57,-0.92,-0.97,-0.38,-2.31,926.23,1153.92,0,28,1
6.68,5.67,-0.47,-1.09,-0.5,-2.58,902.69,1146.23,0,28,1
5.09,7.18,-1.1,-1.15,-0.5,-2.75,920.97,1152.09,0,28,1
0.44,7.25,2.1,-1.0,-0.17,-2.54,1026.66,1216.6,0,28,1
-1.43,7.64,2.76,-0.65,0.36,-2.07,1140.79,1400.68,1,28,1
-4.91,7.9,3.84,-0.5,-0.22,-1.15,918.72,1147.17,0,29,1
-5.44,9.19,3.5,0.08,0.17,0.19,861.82,1062.32,0,29,1
-4.59,8.82,2.88,0.37,0.19,1.16,1014.04,1250.47,0,29,1
-2.68,8.43,2.37,0.75,0.26,2.2,1058.01,1283.41,0,29,1
0.8,7.41,0.93,0.86,0.07,2.69,1118.64,1280.09,0,29,1
4.5,8.24,-0.71,0.8,0.18,2.94,1062.76,1239.85,0,29,1
7.06,6.69,-0.53,0.44,0.58,2.35,1030.66,1257.96,0,29,1
8.53,4.41,-0.34,0.53,0.29,2.0,1024.53,1195.32,0,29,1
9.89,3.25,-0.85,0.62,0.05,1.67,807.43,922.07,0,29,1
10.87,2.58,-1.69,0.42,0.04,1.27,715.03,849.24,0,29,1
10.52,1.81,-0.85,0.18,-0.05,0.94,666.61,788.64,0,29,1
11.36,0.98,-1.04,0.09,-0.0,0.55,523.06,604.72,0,29,1
11.1,0.94,-1.4,0.02,-0.17,0.21,503.67,608.69,0,29,1
10.35,0.83,-1.26,-0.04,0.04,0.07,634.85,803.64,0,29,1
10.27,0.7,-1.16,-0.09,0.07,0.03,622.04,785.67,0,29,1
10.17,0.89,-0.89,-0.1,0.07,0.0,613.4,718.31,0,29,1
10.09,0.87,-0.72,-0.07,0.03,-0.01,619.66,741.64,0,29,1
10.43,0.68,-1.03,-0.1,0.1,-0.09,636.58,764.35,0,29,1
11.96,1.07,-1.34,-0.21,-0.11,-0.45,798.39,996.86,0,29,1
11.51,1.35,-1.14,-0.4,0.13,-1.18,782.02,934.26,0,29,1
11.03,2.81,-1.57,-0.58,0.19,-1.79,1120.74,1404.71,1,29,1
8.33,4.18,-0.35,-0.69,-0.01,-2.04,1052.55,1264.82,0,30,1
7.3,5.21,-0.06,-0.76,-0.25,-2.16,893.39,1078.75,0,30,1
6.37,6.98,0.04,-0.75,-0.25,-2.18,1181.71,1383.81,1,30,1
4.4,8.32,0.15,-0.64,-0.31,-2.29,1101.84,1331.14,0,31,1
0.65,8.62,1.65,-0.63,0.04,-2.36,1110.97,1296.44,0,31,1
-3.38,7.35,2.39,-0.51,0.42,-2.1,1306.42,1567.23,1,31,1
-3.99,9.14,2.16,-0.35,-0.07,-0.89,1184.68,1410.14,1,31,1
-4.45,8.88,3.04,-0.15,0.13,-0.27,1166.96,1345.73,0,32,1
-4.43,8.71,2.87,0.02,0.12,0.28,1153.25,1327.72,0,32,1
-3.85,8.4,2.85,0.14,0.07,0.79,1224.57,1380.58,1,32,1
-3.76,8.44,2.56,0.5,0.31,1.83,1149.35,1374.93,0,33,1
-0.78,7.36,1.75,0.76,0.07,2.6,1114.65,1319.31,0,33,1
2.75,7.44,0.68,0.84,0.1,2.93,1275.77,1451.93,1,33,1
6.39,6.47,0.01,0.82,0.54,2.74,1124.22,1267.97,0,34,1
9.9,4.6,-1.17,0.81,0.13,2.45,1028.13,1166.32,0,34,1
10.11,3.28,-0.97,0.66,0.22,1.8,792.39,922.56,0,34,1
10.84,2.04,-1.88,0.35,0.26,1.28,798.73,924.26,0,34,1
11.27,1.19,-1.06,0.14,-0.09,0.84,735.89,869.89,0,34,1
11.29,1.03,-1.32,0.01,0.07,0.35,591.72,656.61,0,34,1
10.35,1.18,-0.97,-0.04,0.34,0.0,503.87,591.76,0,34,1
10.06,1.3,-1.22,-0.07,0.07,0.04,493.36,621.21,0,34,1
9.94,1.04,-0.83,-0.08,0.23,0.06,575.62,739.29,0,34,1
9.9,1.01,-0.6,-0.08,0.09,0.08,566.06,694.84,0,34,1
10.38,0.96,-0.89,-0.04,-0.01,0.03,509.43,601.74,0,34,1
10.41,0.87,-0.71,-0.09,-0.02,-0.03,533.27,611.16,0,34,1
12.01,1.33,-1.43,-0.2,-0.11,-0.43,769.23,1003.1,0,34,1
11.5,1.65,-1.37,-0.4,0.03,-1.17,747.23,904.24,0,34,1
10.74,2.86,-1.72,-0.58,-0.01,-1.61,779.48,1019.44,0,34,1
9.49,4.04,-1.36,-0.69,0.23,-1.93,983.52,1217.59,0,34,1
7.84,5.62,-0.75,-0.87,-0.15,-2.13,919.66,1092.51,0,34,1
5.72,6.62,0.69,-0.9,-0.45,-2.36,914.67,1130.38,0,34,1
3.79,8.1,0.24,-0.86,-0.14,-2.38,983.25,1217.73,0,34,1
0.3,7.31,1.31,-0.84,0.16,-2.23,1124.67,1328.13,0,34,1
-0.79,9.09,2.2,-0.71,0.03,-1.64,1114.0,1357.16,0,34,1
-2.8,8.57,2.57,-0.41,0.38,-1.35,1165.31,1403.04,1,34,1
-4.45,8.68,3.04,-0.22,-0.02,-0.48,1088.86,1264.68,0,35,1
-4.78,8.9,3.37,0.08,0.07,0.36,1078.03,1239.62,0,35,1
-4.33,8.58,3.1,0.4,0.22,1.2,1026.45,1187.01,0,35,1
-2.47,8.22,2.17,0.67,0.15,2.01,989.42,1178.76,0,35,1
0.17,8.73,1.07,0.73,0.01,2.41,1042.81,1229.4,0,35,1
4.37,7.85,-0.08,0.68,0.14,2.37,1141.66,1323.64,0,35,1
4.37,7.85,-0.08,0.68,0.14,2.37,1172.21,1346.37,0,35,1
5.24,6.76,0.21,0.55,-0.06,2.25,953.22,1109.19,0,35,1
7.42,5.58,-0.44,0.68,0.35,2.2,894.45,1036.32,0,35,1
9.68,3.88,-1.15,0.72,0.2,2.06,719.51,841.96,0,35,1
11.66,2.54,-2.47,0.39,0.5,1.56,628.56,728.94,0,35,1
11.1,1.94,-1.68,0.13,0.25,0.79,551.4,631.01,0,35,1
11.27,1.5,-1.16,-0.02,0.12,0.23,529.09,615.37,0,35,1
9.8,1.68,-0.53,-0.03,0.04,0.0,474.67,542.49,0,35,1
10.06,1.57,-0.97,-0.07,-0.01,0.09,512.18,634.34,0,35,1
10.19,1.49,-0.69,-0.1,0.02,0.09,557.2,681.32,0,35,1
10.21,1.52,-1.0,-0.09,0.18,0.0,524.12,615.91,0,35,1
10.3,1.78,-1.25,-0.09,0.08,0.06,547.05,661.87,0,35,1
9.96,1.41,-0.76,-0.09,0.08,0.02,574.32,682.66,0,35,1
10.53,1.55,-0.81,-0.16,-0.05,-0.1,667.94,880.83,0,35,1
11.42,1.65,-0.76,-0.31,-0.14,-0.52,630.84,760.03,0,35,1
11.35,2.12,-0.98,-0.41,-0.07,-1.09,763.57,1022.5,0,35,1
10.82,3.4,-1.38,-0.55,0.04,-1.66,720.59,859.16,0,35,1
9.58,4.66,-1.34,-0.81,-0.11,-2.11,892.64,1130.93,0,35,1
7.01,5.92,-0.55,-0.95,-0.0,-2.41,898.16,1128.67,0,35,1
4.93,6.96,0.39,-0.87,-0.26,-2.46,894.64,1101.27,0,35,1
2.4,7.97,1.49,-0.73,-0.6,-2.26,1132.21,1367.22,0,35,1
-1.24,8.06,1.76,-0.69,0.05,-2.12,1139.79,1392.23,1,35,1
-3.46,8.59,2.48,-0.39,0.0,-1.14,1160.96,1378.57,0,36,1
-4.31,8.88,3.38,-0.15,0.38,-0.38,989.18,1193.45,0,36,1
-3.92,9.07,2.88,0.1,0.15,0.46,1021.08,1218.63,0,36,1
-3.49,8.14,2.78,0.44,0.18,1.5,1073.08,1270.91,0,36,1
-1.13,8.46,1.47,0.8,0.22,2.47,1086.15,1300.63,0,36,1
2.32,8.29,0.34,0.7,0.54,2.73,1168.92,1355.81,0,36,1
5.78,6.78,-0.19,0.52,0.3,2.55,1202.68,1385.75,1,36,1
8.2,5.49,-0.17,0.5,0.32,2.22,1108.7,1261.63,0,37,1
8.57,3.87,-0.16,0.63,0.3,2.18,868.13,987.12,0,37,1
10.32,2.03,-0.96,0.62,0.08,1.98,776.01,881.79,0,37,1
12.82,0.89,-1.34,0.3,-0.15,1.4,625.5,703.39,0,37,1
12.13,0.33,-0.5,-0.08,0.14,0.07,587.54,672.62,0,37,1
9.38,0.97,-0.62,-0.08,-0.25,-0.1,560.42,637.88,0,37,1
10.35,1.11,-1.19,0.01,0.1,0.17,556.04,670.2,0,37,1
10.6,0.75,-1.09,-0.06,0.16,0.04,584.05,720.47,0,37,1
9.68,0.8,-0.33,-0.1,0.08,-0.07,551.89,662.36,0,37,1
9.77,1.03,-0.3,-0.11,-0.03,0.03,536.01,613.59,0,37,1
10.25,0.84,-0.12,-0.1,-0.15,0.04,527.22,646.98,0,37,1
10.25,1.0,-0.43,-0.11,0.11,-0.14,470.76,558.62,0,37,1
9.45,0.92,-0.28,-0.11,-0.02,0.01,455.08,562.2,0,37,1
10.42,0.83,-0.51,-0.14,0.08,0.13,498.56,603.4,0,37,1
10.76,0.81,-1.08,-0.2,0.15,0.01,506.45,631.26,0,37,1
10.05,0.52,-0.87,-0.26,0.13,-0.09,515.76,659.61,0,37,1
10.42,0.81,-1.07,-0.41,0.1,-0.08,585.23,749.54,0,37,1
9.88,1.02,-0.4,-0.65,0.36,-0.1,630.94,753.13,0,37,1
10.16,0.96,0.22,-0.69,-0.02,-0.09,661.49,792.4,0,37,1
10.05,1.47,0.5,-0.64,0.35,-0.02,645.9,746.67,0,37,1
9.92,1.19,0.94,-0.39,0.18,-0.08,608.4,732.03,0,37,1
10.22,1.73,0.94,-0.09,0.12,-0.17,607.98,731.32,0,37,1
9.96,1.83,0.97,-0.12,0.12,-0.12,577.83,682.55,0,37,1
9.79,2.02,0.83,-0.11,0.11,-0.06,565.06,664.52,0,37,1
9.82,1.95,1.06,-0.14,0.06,-0.0,489.25,576.4,0,37,1
9.67,1.85,1.24,-0.12,0.09,-0.02,466.51,534.75,0,37,1
9.99,2.0,1.3,-0.13,0.07,0.01,415.71,478.91,0,37,1
9.89,1.92,1.34,-0.09,0.04,0.03,415.87,499.19,0,37,1
9.31,1.7,2.74,-0.09,0.08,0.04,0.0,391.4,0,0,1
9.38,1.89,2.93,-0.04,0.05,0.03,0.0,357.23,0,0,1
9.34,2.17,3.46,0.03,-0.06,0.12,0.0,302.38,0,0,1
9.13,2.06,3.13,0.08,-0.25,0.21,0.0,0.0,0,0,1
9.13,1.53,2.42,0.21,-0.31,0.22,0.0,0.0,0,0,1
9.88,1.36,1.47,0.3,-0.32,0.2,0.0,0.0,0,0,1
10.0,1.16,1.15,0.23,-0.22,0.2,0.0,0.0,0,0,1
10.13,0.98,0.72,0.08,-0.03,0.21,0.0,411.53,0,0,1
11.7,0.79,0.45,-0.16,0.04,0.07,512.1,708.17,0,0,1
11.29,0.84,1.58,-0.1,0.27,-0.46,595.59,766.91,0,0,1
13.81,1.33,-0.17,-0.39,0.4,-1.6,498.46,631.48,0,0,1
11.04,2.71,-0.28,-0.78,-0.28,-2.64,470.55,628.77,0,0,1
10.05,3.71,-0.05,-1.32,-0.99,-3.2,813.76,1051.31,0,0,1
6.66,5.09,0.96,-1.29,-0.9,-3.32,1172.5,1535.8,1,0,1
-3.52,8.64,5.53,-0.05,0.24,0.18,677.01,768.94,0,1,1
-4.85,8.3,5.51,0.38,1.05,0.96,571.44,624.5,0,1,1
-3.32,6.74,3.97,0.86,1.44,2.55,444.98,473.18,0,1,1
-0.05,7.06,2.15,0.79,0.69,3.84,316.58,378.22,0,1,1
8.57,5.78,0.77,0.44,0.85,3.89,336.1,424.97,0,1,1
10.23,2.73,2.68,0.19,0.79,2.99,432.89,641.81,0,1,1
10.47,1.78,1.87,0.32,-0.29,1.82,0.0,324.84,0,1,1
9.98,1.05,0.16,0.05,-0.82,1.63,0.0,334.9,0,1,1
14.19,0.21,0.5,0.03,-0.04,0.98,0.0,0.0,0,1,1
7.97,0.93,1.51,-0.07,0.66,-0.18,0.0,0.0,0,1,1
10.77,0.44,0.86,-0.15,0.26,0.04,0.0,0.0,0,1,1
10.06,0.63,0.98,-0.08,0.11,0.0,0.0,0.0,0,1,1
9.75,0.43,1.58,-0.11,0.15,-0.02,0.0,0.0,0,1,1
9.5,0.73,1.46,-0.11,-0.19,0.05,0.0,449.74,0,1,1
10.81,0.61,1.28,-0.09,-0.13,-0.02,397.91,702.27,0,1,1
12.29,0.79,1.41,-0.18,-0.41,-0.84,431.76,625.35,0,1,1
12.57,1.82,0.06,-0.36,0.54,-1.71,590.17,901.9,0,1,1
10.56,2.83,0.08,-0.65,-0.32,-2.35,649.07,923.97,0,1,1
8.85,3.94,0.88,-0.92,-0.53,-2.67,775.54,1062.14,0,1,1
4.8,5.62,2.04,-0.96,-0.77,-2.94,703.73,935.64,0,1,1
4.23,7.53,1.61,-1.24,-0.9,-3.08,902.94,1273.7,0,1,1
-1.33,3.59,4.78,-1.45,0.43,-3.37,1005.68,1351.84,0,1,1
-4.02,7.23,5.98,-0.47,0.51,-1.3,896.26,1162.56,0,1,1
-3.32,8.3,4.6,-0.07,0.31,-0.31,801.57,902.45,0,1,1
-3.25,8.3,4.72,0.14,0.43,0.29,670.07,829.54,0,1,1
-1.45,7.99,3.79,0.26,0.15,0.69,536.92,729.24,0,1,1
-3.8,5.26,4.21,0.81,0.46,3.34,395.5,443.8,0,1,1
1.86,5.92,1.77,0.98,0.1,4.22,430.95,560.72,0,1,1
5.68,4.62,1.27,0.65,0.46,4.27,341.12,469.63,0,1,1
11.65,1.46,1.15,0.42,0.71,3.34,459.93,653.41,0,1,1
11.94,0.65,0.62,0.21,0.3,2.06,302.62,334.6,0,1,1
12.5,0.08,1.36,0.12,-0.38,1.17,0.0,0.0,0,1,1
12.77,0.4,0.49,0.11,-0.02,-0.18,0.0,306.66,0,1,1
9.11,0.75,1.44,-0.09,-0.17,0.1,0.0,0.0,0,1,1
9.72,0.19,1.63,-0.1,0.04,0.02,0.0,0.0,0,1,1
9.97,0.45,0.92,-0.14,0.09,-0.07,0.0,0.0,0,1,1
10.16,0.44,1.53,-0.11,0.02,-0.03,0.0,0.0,0,1,1
9.95,0.74,1.18,-0.1,0.02,-0.02,0.0,380.22,0,1,1
10.23,0.5,1.46,-0.09,0.02,0.02,313.54,460.28,0,1,1
13.51,0.59,1.02,-0.14,-0.42,-0.72,432.03,635.92,0,1,1
11.45,1.35,1.2,-0.23,0.85,-1.67,387.32,476.78,0,1,1
13.57,3.21,0.14,-0.51,-0.36,-2.44,591.49,857.23,0,1,1
9.27,4.03,1.07,-0.87,-0.83,-3.23,642.42,873.98,0,1,1
4.69,5.95,1.23,-1.01,-0.8,-3.47,1100.5,1491.97,1,1,1
-6.61,6.16,7.02,-0.55,-0.3,-0.68,938.65,1185.23,0,2,1
-3.03,8.14,5.27,-0.04,0.2,0.23,586.91,713.1,0,2,1
-3.24,7.4,5.54,0.42,0.88,1.31,392.99,462.11,0,2,1
-2.75,6.42,4.31,0.86,1.06,2.97,323.41,383.12,0,2,1
1.57,7.06,2.37,0.77,0.09,3.65,312.7,362.46,0,2,1
6.52,5.98,1.42,0.85,-0.02,3.46,0.0,366.34,0,2,1
9.01,3.84,1.36,0.53,0.43,3.02,321.13,488.24,0,2,1
9.96,1.87,1.58,0.21,0.3,2.31,0.0,0.0,0,2,1
11.1,1.06,0.82,0.2,-0.34,1.89,0.0,0.0,0,2,1
16.66,0.28,0.24,-0.03,-0.18,0.62,0.0,363.92,0,2,1
6.93,1.25,1.85,-0.01,0.16,0.05,0.0,0.0,0,2,1
11.02,0.17,1.47,-0.14,0.27,0.03,0.0,0.0,0,2,1
9.6,0.57,1.43,-0.06,-0.05,0.05,0.0,0.0,0,2,1
9.92,0.53,1.52,-0.06,0.08,0.01,0.0,0.0,0,2,1
10.15,0.55,1.39,-0.08,0.09,0.04,0.0,0.0,0,2,1
9.95,0.5,1.46,-0.09,0.07,0.04,0.0,0.0,0,2,1
10.53,0.43,1.56,-0.09,0.03,-0.04,0.0,434.61,0,2,1
14.1,0.44,1.51,-0.14,-0.11,-0.96,429.62,672.09,0,2,1
9.88,2.04,0.88,-0.19,-0.44,-1.78,495.91,718.29,0,2,1
9.57,3.14,0.79,-0.56,-0.19,-2.05,545.94,733.68,0,2,1
9.38,4.9,0.83,-0.82,-0.37,-2.67,693.88,964.9,0,2,1
6.42,6.06,0.68,-0.97,-0.52,-3.34,731.85,1025.47,0,2,1
2.5,6.38,1.78,-1.24,-0.3,-3.45,825.1,1107.22,0,2,1
-0.92,7.84,2.84,-1.35,-0.68,-2.96,807.9,1139.18,0,2,1
-5.49,6.29,6.61,-0.85,-0.56,-1.53,1089.5,1399.03,0,2,1
-3.75,7.44,5.83,-0.17,0.0,-0.01,893.9,1146.74,0,2,1
-3.67,7.32,5.02,-0.02,-0.14,0.21,921.63,1123.96,0,2,1
-5.16,6.37,6.02,0.44,0.58,1.43,534.6,611.0,0,2,1
-3.42,5.63,4.96,0.89,1.41,3.28,396.4,460.44,0,2,1
1.33,6.09,2.96,0.94,0.54,4.15,370.22,428.47,0,2,1
7.38,4.77,1.88,0.64,0.16,3.95,354.85,453.84,0,2,1
12.75,2.68,0.76,0.4,0.08,2.94,477.21,689.01,0,2,1
10.52,1.87,1.59,0.21,-0.24,1.86,347.13,394.03,0,2,1
8.67,1.41,1.33,0.2,-0.15,1.45,0.0,0.0,0,2,1
13.0,0.35,1.41,0.06,0.15,1.13,0.0,0.0,0,2,1
8.76,0.73,1.88,-0.09,0.66,-0.26,0.0,0.0,0,2,1
11.49,0.25,1.18,-0.13,0.04,0.09,0.0,0.0,0,2,1
9.94,0.36,1.47,-0.04,-0.07,0.02,0.0,0.0,0,2,1
9.79,0.28,1.64,-0.1,0.16,-0.02,0.0,0.0,0,2,1
9.9,0.48,1.53,-0.08,0.2,-0.02,0.0,0.0,0,2,1
9.84,0.43,1.81,-0.09,0.17,0.01,0.0,0.0,0,2,1
9.86,0.41,2.01,-0.08,0.13,-0.03,318.18,597.8,0,2,1
11.33,0.53,2.08,-0.07,-0.06,-0.51,420.66,648.46,0,2,1
12.07,1.49,1.94,-0.13,-0.24,-1.38,708.43,1105.2,0,2,1
13.32,2.87,0.28,-0.35,-0.14,-2.24,800.02,1042.34,0,2,1
8.34,3.03,0.69,-0.85,-0.07,-3.43,743.02,981.6,0,2,1
5.51,4.11,2.09,-0.83,-0.71,-3.42,893.86,1152.25,0,2,1
3.77,5.11,0.73,-1.55,-1.02,-3.96,783.76,1021.15,0,2,1
0.37,6.51,3.05,-1.64,-1.03,-3.4,1034.98,1352.57,0,2,1
0.34,8.01,5.44,-0.57,-0.58,-1.1,1123.03,1398.06,0,2,1
-3.45,7.24,5.44,-0.11,0.37,-0.12,1153.75,1374.62,0,2,1
-5.73,7.08,5.69,0.34,1.13,1.06,667.57,758.42,0,2,1
-2.83,7.08,5.63,0.96,0.79,2.55,542.83,702.71,0,2,1
-0.78,7.01,2.93,0.97,0.09,3.38,445.93,544.8,0,2,1
4.31,6.88,1.72,0.68,1.26,3.65,423.11,490.88,0,2,1
10.16,5.16,0.11,0.37,-0.46,3.01,382.11,460.91,0,2,1
9.55,3.17,0.38,0.15,0.21,2.21,373.04,451.19,0,2,1
10.15,2.03,1.16,-0.0,-0.14,1.73,0.0,0.0,0,2,1
9.94,1.93,0.08,0.25,-0.68,1.79,0.0,0.0,0,2,1
12.4,-0.02,-0.95,-0.13,0.13,1.33,0.0,354.95,0,2,1
10.67,-0.19,0.74,-0.03,0.45,-0.04,0.0,0.0,0,2,1
10.9,-0.64,0.16,-0.04,-0.02,0.09,0.0,0.0,0,2,1
9.39,-0.64,0.97,-0.12,0.03,0.01,0.0,0.0,0,2,1
9.71,-0.35,0.64,-0.11,-0.01,0.03,0.0,0.0,0,2,1
10.24,-0.56,0.56,-0.0,0.09,0.0,0.0,0.0,0,2,1
9.96,-0.35,1.47,-0.0,0.0,-0.01,0.0,419.85,0,2,1
9.92,-0.17,0.99,-0.03,0.03,0.12,313.92,450.66,0,2,1
11.12,-0.39,0.84,0.01,-0.15,-0.07,337.66,418.45,0,2,1
13.17,0.05,-0.2,-0.08,-0.66,-0.92,619.44,1117.95,0,2,1
13.51,1.0,-0.94,-0.05,-0.35,-1.88,1167.28,1629.09,1,2,1
0.88,3.26,0.86,-1.7,-0.37,-3.95,1053.44,1375.02,0,3,1
-3.66,3.33,3.92,-1.38,-0.15,-3.28,1211.26,1475.6,1,3,1
-2.42,9.17,4.1,-0.44,-0.51,-0.47,796.82,955.2,0,4,1
-4.18,8.65,3.93,0.05,0.21,0.89,600.87,701.36,0,4,1
-3.81,8.06,4.66,0.48,1.38,2.22,435.73,513.8,0,4,1
-1.5,6.56,2.66,0.96,0.57,3.67,427.39,520.86,0,4,1
6.15,6.05,-0.1,0.9,0.78,3.94,505.77,636.57,0,4,1
10.4,3.35,-1.02,0.58,-0.09,3.59,737.36,1028.51,0,4,1
12.05,1.16,-0.75,0.21,-0.01,2.61,535.69,628.32,0,4,1
12.21,-0.13,-0.79,0.07,-0.52,1.77,394.09,436.05,0,4,1
12.52,-0.63,-0.6,-0.11,0.09,0.93,303.73,339.15,0,4,1
11.9,-0.73,1.04,-0.04,0.56,-0.21,0.0,0.0,0,4,1
10.99,-0.35,-0.9,0.05,-0.24,0.14,0.0,0.0,0,4,1
9.48,-0.87,1.06,-0.12,0.23,-0.05,0.0,0.0,0,4,1
10.38,-0.65,0.05,-0.08,0.09,0.01,0.0,0.0,0,4,1
9.94,-0.68,0.78,-0.13,0.08,-0.04,0.0,0.0,0,4,1
10.17,-0.61,0.37,-0.07,0.05,-0.03,0.0,0.0,0,4,1
10.1,-0.4,0.54,-0.1,0.19,0.01,0.0,0.0,0,4,1
10.05,-0.52,0.53,-0.06,0.1,-0.0,0.0,329.86,0,4,1
9.76,-0.44,0.49,-0.13,0.17,0.02,0.0,378.51,0,4,1
10.13,-0.74,1.38,-0.09,0.0,-0.02,0.0,366.62,0,4,1
12.73,-0.6,0.46,-0.04,-0.25,-0.79,536.58,763.29,0,4,1
13.39,-0.12,0.17,-0.12,0.09,-2.05,584.31,739.93,0,4,1
10.14,2.5,-1.26,-0.57,-0.31,-3.01,461.61,646.42,0,4,1
7.84,4.61,-0.06,-0.96,-0.37,-2.92,443.37,601.09,0,4,1
6.58,6.41,-0.1,-1.34,-0.73,-3.81,618.08,851.96,0,4,1
0.81,5.15,2.04,-1.31,-0.81,-3.52,875.58,1154.52,0,4,1
-5.92,4.15,4.6,-1.35,-0.7,-2.94,1103.65,1483.37,1,4,1
-2.74,6.7,3.98,0.67,0.47,2.15,576.7,677.79,0,5,1
-1.3,6.75,3.4,0.78,0.33,3.14,446.85,530.02,0,5,1
2.79,7.16,1.93,0.68,0.54,3.36,515.22,678.89,0,5,1
7.92,6.15,1.52,0.63,0.33,3.09,801.0,1074.17,0,5,1
9.98,4.64,0.67,0.43,0.22,2.53,574.85,775.68,0,5,1
11.07,2.69,-0.09,0.11,-0.41,1.68,453.1,502.08,0,5,1
9.3,1.77,0.93,-0.04,-0.04,1.39,348.03,385.09,0,5,1
11.3,0.94,0.42,0.2,-0.04,1.29,0.0,0.0,0,5,1
14.26,0.12,0.7,0.0,-0.15,0.17,0.0,0.0,0,5,1
7.23,0.85,1.22,-0.02,-0.07,0.11,0.0,0.0,0,5,1
9.41,0.39,0.6,-0.1,0.36,-0.06,0.0,324.48,0,5,1
10.37,0.54,0.53,-0.11,0.12,0.0,0.0,314.96,0,5,1
10.14,0.67,0.53,-0.1,0.03,-0.01,0.0,0.0,0,5,1
10.11,0.51,0.85,-0.09,0.06,-0.0,0.0,0.0,0,5,1
10.17,0.64,0.48,-0.05,0.17,-0.02,0.0,0.0,0,5,1
10.27,0.6,0.83,-0.04,-0.05,0.01,0.0,0.0,0,5,1
10.02,0.74,0.82,-0.07,0.03,-0.0,0.0,317.42,0,5,1
10.19,0.77,0.74,-0.14,0.07,0.02,0.0,0.0,0,5,1
9.99,0.74,0.76,-0.12,0.11,0.01,0.0,0.0,0,5,1
10.12,0.59,0.85,-0.11,0.04,0.03,0.0,0.0,0,5,1
9.86,0.84,0.8,-0.07,0.1,0.0,0.0,0.0,0,5,1
10.66,0.76,0.99,-0.05,0.03,-0.08,0.0,324.15,0,5,1
10.41,1.19,0.7,-0.05,-0.0,-0.19,0.0,368.66,0,5,1
12.0,1.27,0.69,-0.12,-0.18,-0.67,541.69,850.4,0,5,1
11.65,1.58,0.63,-0.22,0.07,-1.57,603.85,802.71,0,5,1
9.47,3.41,0.29,-0.66,-0.24,-2.37,497.73,659.12,0,5,1
8.25,4.5,1.14,-1.04,-0.38,-2.64,460.39,560.46,0,5,1
9.35,6.3,0.85,-1.13,-0.59,-3.59,982.5,1331.74,0,5,1
1.21,5.17,1.57,-1.53,-0.88,-3.57,1029.8,1356.81,0,5,1
-0.04,4.0,4.83,-1.47,-0.95,-3.59,812.89,1059.92,0,5,1
-5.5,7.16,4.34,-0.58,-0.39,-1.46,1308.55,1670.46,1,5,1
-7.94,6.95,1.02,1.0,1.92,1.96,836.92,905.04,0,6,1
-4.26,6.11,-0.29,0.91,0.61,3.27,616.81,656.91,0,6,1
0.79,6.64,-0.73,0.92,0.13,3.81,450.64,497.33,0,6,1
5.03,5.0,-0.86,0.79,0.23,4.05,319.24,369.76,0,6,1
10.02,2.24,-1.95,0.29,0.61,3.55,330.09,405.94,0,6,1
14.45,1.0,-2.89,-0.22,0.54,2.14,356.67,445.21,0,6,1
12.28,1.72,-1.85,-0.49,0.32,0.75,321.53,415.49,0,6,1
11.11,1.5,0.71,-0.29,0.13,0.32,0.0,371.97,0,6,1
10.25,1.1,-1.92,-0.21,0.12,0.64,478.93,661.33,0,6,1
10.31,-0.19,0.39,-0.28,0.41,-0.02,0.0,310.16,0,6,1
11.07,0.4,-0.88,-0.18,-0.06,0.09,0.0,0.0,0,6,1
10.07,0.31,-0.35,-0.08,-0.06,0.02,0.0,0.0,0,6,1
10.57,0.5,-0.38,-0.1,0.06,-0.0,0.0,0.0,0,6,1
10.11,0.52,-0.2,-0.09,0.07,-0.0,0.0,0.0,0,6,1
10.02,0.65,-0.07,-0.09,0.14,-0.01,0.0,0.0,0,6,1
10.3,0.64,-0.26,-0.11,0.14,-0.01,0.0,0.0,0,6,1
10.3,0.76,-0.31,-0.1,0.06,0.01,0.0,0.0,0,6,1
10.23,0.63,-0.16,-0.05,-0.04,0.06,0.0,307.64,0,6,1
9.9,0.54,0.1,-0.1,0.18,0.06,0.0,0.0,0,6,1
10.85,0.4,-0.06,-0.05,0.04,-0.01,0.0,513.0,0,6,1
11.12,0.36,0.34,0.04,-0.3,-0.37,370.12,522.56,0,6,1
12.1,1.19,-1.19,-0.06,-0.31,-1.0,447.6,582.16,0,6,1
12.7,2.46,-1.16,-0.5,-0.18,-1.83,485.1,594.38,0,6,1
12.5,3.97,-2.94,-1.13,-0.44,-3.07,784.6,1170.79,0,6,1
7.57,3.76,-0.85,-1.47,-0.13,-3.42,1050.66,1391.12,0,6,1
-0.2,3.51,1.52,-1.8,0.22,-3.35,925.13,1231.08,0,6,1
0.54,7.13,3.95,-1.41,-0.16,-2.77,581.65,747.64,0,6,1
-2.34,6.77,4.39,-1.22,-0.83,-2.32,1341.88,1688.65,1,6,1
-4.17,7.48,5.33,1.19,1.57,1.66,767.26,849.45,0,7,1
-3.29,7.38,2.46,1.49,1.32,2.47,562.08,641.81,0,7,1
-0.16,6.06,0.02,1.53,0.8,3.55,424.94,473.76,0,7,1
5.6,5.07,-1.82,0.94,0.55,3.88,461.4,576.03,0,7,1
10.0,2.27,-1.94,0.32,0.06,3.66,377.62,459.11,0,7,1
13.78,0.17,-0.89,0.14,0.33,2.58,367.56,426.92,0,7,1
11.16,-0.1,-1.57,0.0,0.37,1.45,0.0,304.67,0,7,1
11.95,-0.33,-0.74,-0.28,0.63,0.72,0.0,0.0,0,7,1
11.51,-0.46,-1.5,0.09,0.03,0.05,0.0,0.0,0,7,1
11.73,-0.67,-1.06,-0.27,0.01,-0.1,0.0,0.0,0,7,1
10.08,-0.41,-0.3,-0.17,-0.08,-0.03,0.0,0.0,0,7,1
10.21,-0.47,0.07,-0.16,0.15,-0.06,0.0,0.0,0,7,1
10.4,-0.4,-0.08,-0.11,0.06,-0.03,0.0,0.0,0,7,1
10.16,-0.3,0.08,-0.05,0.02,-0.02,0.0,0.0,0,7,1
10.22,-0.37,0.19,-0.03,0.08,-0.0,0.0,0.0,0,7,1
10.18,-0.3,0.17,-0.06,0.06,-0.0,0.0,0.0,0,7,1
10.08,-0.26,0.25,-0.07,0.03,-0.0,0.0,0.0,0,7,1
10.14,-0.24,0.12,-0.07,0.03,0.02,0.0,0.0,0,7,1
10.16,-0.25,-0.06,-0.07,0.04,0.02,0.0,0.0,0,7,1
10.24,-0.31,0.19,-0.1,0.05,0.01,0.0,0.0,0,7,1
10.73,-0.2,0.04,-0.09,0.02,-0.05,0.0,402.76,0,7,1
12.74,0.05,0.1,-0.0,-0.55,-0.53,336.21,542.44,0,7,1
12.41,0.69,-0.97,-0.12,-0.08,-1.46,437.43,622.32,0,7,1
11.07,1.97,-1.08,-0.61,-0.32,-1.91,443.16,617.45,0,7,1
11.41,3.18,-1.56,-1.02,-0.21,-2.58,516.12,747.25,0,7,1
8.01,3.25,-0.0,-1.22,-0.05,-3.23,644.67,936.82,0,7,1
3.37,5.86,-0.12,-1.32,-0.36,-3.2,594.46,782.05,0,7,1
1.21,6.68,1.91,-2.07,-0.78,-3.36,1039.83,1415.79,1,7,1
-6.36,8.04,6.01,0.4,0.69,0.63,594.15,686.75,0,8,1
-3.01,7.29,4.51,1.07,0.99,1.96,426.7,480.85,0,8,1
-0.68,6.85,2.49,1.49,0.37,3.0,322.16,358.62,0,8,1
4.01,6.55,-0.4,1.28,0.66,3.2,301.96,358.61,0,8,1
6.78,4.87,-0.98,0.79,0.32,3.16,407.7,517.73,0,8,1
10.09,3.28,-1.31,0.55,0.18,2.9,351.16,428.99,0,8,1
11.96,1.38,-1.49,0.37,0.17,2.22,0.0,300.53,0,8,1
12.3,0.28,-2.2,0.13,0.18,1.48,0.0,309.94,0,8,1
11.98,-0.48,-1.29,-0.01,0.45,0.89,317.69,475.65,0,8,1
12.15,-0.99,-0.62,0.04,0.33,0.24,0.0,326.36,0,8,1
10.01,-0.82,-0.52,0.0,0.21,0.13,0.0,403.43,0,8,1
10.09,-1.15,-0.18,-0.13,0.14,-0.04,0.0,0.0,0,8,1
10.09,-0.91,-0.24,-0.08,-0.02,0.08,0.0,0.0,0,8,1
10.39,-1.13,-0.36,-0.1,-0.1,0.04,0.0,0.0,0,8,1
9.85,-1.1,-0.34,-0.17,-0.05,0.1,0.0,0.0,0,8,1
10.3,-1.18,-0.62,-0.17,-0.03,0.06,0.0,0.0,0,8,1
9.87,-1.23,-0.52,-0.16,-0.03,0.1,0.0,0.0,0,8,1
10.13,-1.29,-0.36,-0.12,-0.2,0.14,0.0,0.0,0,8,1
10.41,-1.15,-1.44,-0.16,-0.28,0.21,0.0,324.89,0,8,1
9.92,-1.6,-1.37,-0.2,-0.24,0.27,0.0,0.0,0,8,1
10.02,-1.94,-1.92,-0.14,-0.21,0.17,0.0,0.0,0,8,1
9.95,-2.22,-1.78,-0.06,-0.11,0.05,0.0,0.0,0,8,1
10.04,-2.01,-1.88,-0.03,-0.05,0.0,0.0,0.0,0,8,1
10.28,-1.94,-1.97,-0.08,-0.09,0.03,0.0,0.0,0,8,1
11.05,-1.95,-1.94,-0.08,-0.35,-0.19,0.0,425.06,0,8,1
11.02,-1.42,-2.49,-0.19,-0.28,-0.8,459.56,694.85,0,8,1
12.45,-0.51,-3.15,-0.34,-0.35,-1.45,460.68,602.43,0,8,1
11.03,0.97,-4.08,-0.71,-0.1,-2.13,472.92,644.67,0,8,1
10.84,2.17,-3.51,-1.29,-0.05,-2.76,841.06,1264.83,0,8,1
8.56,2.59,-2.57,-1.24,0.26,-3.16,935.39,1184.26,0,8,1
3.86,5.23,-1.88,-1.05,0.04,-2.78,1081.2,1442.45,1,8,1
-0.47,9.71,1.05,0.55,0.56,1.05,737.86,810.63,0,9,1
-0.22,7.68,0.57,1.06,0.45,2.23,574.34,619.45,0,9,1
3.83,5.13,-2.19,1.45,0.36,3.5,442.46,536.27,0,9,1
9.07,2.8,-3.89,1.25,0.02,3.77,417.06,521.65,0,9,1
12.6,0.11,-4.05,0.8,0.55,2.87,438.8,590.45,0,9,1
11.52,-1.15,-3.91,0.41,0.27,1.93,0.0,336.27,0,9,1
12.0,-2.62,-3.31,-0.07,0.29,1.22,0.0,357.3,0,9,1
11.47,-2.3,-2.86,-0.0,0.22,-0.26,0.0,0.0,0,9,1
10.61,-2.24,-2.74,-0.17,0.13,0.07,0.0,0.0,0,9,1
9.69,-2.3,-2.21,-0.18,0.28,-0.1,0.0,0.0,0,9,1
10.23,-2.21,-2.17,-0.21,0.27,-0.03,0.0,0.0,0,9,1
10.02,-2.04,-1.89,-0.17,0.23,-0.07,0.0,0.0,0,9,1
9.94,-2.1,-1.82,-0.1,0.11,-0.01,0.0,0.0,0,9,1
9.67,-1.86,-1.57,-0.08,0.08,-0.0,0.0,0.0,0,9,1
9.94,-1.98,-1.69,-0.09,0.08,-0.01,0.0,0.0,0,9,1
9.87,-1.78,-1.72,-0.09,0.08,-0.03,0.0,0.0,0,9,1
10.11,-1.81,-1.82,-0.12,0.15,-0.04,0.0,0.0,0,9,1
10.03,-1.75,-1.6,-0.09,0.07,-0.02,0.0,0.0,0,9,1
10.07,-1.65,-1.69,-0.08,0.02,-0.02,0.0,0.0,0,9,1
11.19,-1.65,-1.47,-0.08,0.06,-0.15,355.62,627.55,0,9,1
12.39,-1.25,-1.64,-0.1,-0.26,-0.98,0.0,405.33,0,9,1
11.18,-0.2,-1.75,-0.31,0.21,-1.57,338.64,441.45,0,9,1
11.09,1.47,-2.87,-0.71,-0.4,-2.16,335.14,407.12,0,9,1
10.5,3.19,-2.24,-1.01,-0.43,-2.51,446.52,612.13,0,9,1
6.72,5.35,-1.43,-1.01,-0.34,-2.88,522.55,743.78,0,9,1
4.34,6.46,-1.29,-1.45,-0.76,-2.56,748.41,1105.74,0,9,1
2.14,7.79,0.91,-1.04,-0.34,-1.82,723.47,1033.78,0,9,1
-0.39,6.72,2.83,-1.08,-0.28,-1.79,983.29,1334.78,0,9,1
-1.97,8.98,3.02,-0.47,-0.13,-0.73,976.02,1276.95,0,9,1
-2.76,9.22,3.24,-0.24,0.2,-0.16,884.28,1166.89,0,9,1
-2.09,9.47,2.86,-0.03,0.5,0.15,831.28,1021.23,0,9,1
-2.7,8.7,3.26,0.11,0.43,0.42,516.6,553.45,0,9,1
-2.12,7.61,3.34,1.17,1.65,2.22,380.61,442.51,0,9,1
0.03,6.4,1.77,1.53,0.36,3.27,381.89,512.16,0,9,1
5.36,6.22,-1.39,1.29,0.68,3.5,366.33,493.1,0,9,1
10.64,3.95,-3.26,0.54,0.36,3.22,463.85,645.73,0,9,1
13.49,1.42,-1.87,-0.05,0.71,1.71,434.55,612.14,0,9,1
9.51,1.15,-0.23,0.15,0.07,1.24,0.0,346.07,0,9,1
9.62,0.26,-0.96,0.28,0.09,1.3,0.0,0.0,0,9,1
11.75,-1.19,-1.34,0.01,0.03,1.22,0.0,0.0,0,9,1
13.17,-1.54,-0.98,-0.27,0.3,-0.01,0.0,0.0,0,9,1
8.4,-0.67,-0.23,-0.07,-0.09,0.07,0.0,0.0,0,9,1
10.43,-1.28,-0.45,-0.19,0.35,-0.04,0.0,0.0,0,9,1
9.97,-1.07,-0.5,-0.05,0.0,0.02,0.0,0.0,0,9,1
10.15,-0.98,-0.2,-0.07,0.11,-0.01,0.0,0.0,0,9,1
10.35,-1.08,-0.2,-0.08,0.06,0.0,0.0,0.0,0,9,1
10.16,-1.07,-0.25,-0.06,0.09,-0.0,0.0,0.0,0,9,1
10.28,-1.1,-0.11,-0.07,0.03,0.02,0.0,0.0,0,9,1
10.77,-1.09,0.24,-0.05,0.01,-0.24,314.01,461.78,0,9,1
11.7,-0.31,-0.97,0.01,-0.16,-0.92,413.31,736.09,0,9,1
11.96,0.29,-1.08,-0.29,-0.11,-1.28,332.6,483.6,0,9,1
13.56,1.45,-1.75,-0.53,-0.4,-2.59,452.21,599.13,0,9,1
7.13,3.35,-0.96,-0.69,-0.75,-2.72,453.76,659.13,0,9,1
6.3,6.3,-1.7,-0.87,-1.37,-2.37,594.58,844.71,0,9,1
4.6,7.1,-0.84,-1.63,-0.83,-2.96,798.93,1092.35,0,9,1
3.29,9.04,-0.66,-1.37,-0.66,-2.44,1085.48,1428.42,1,9,1
-1.87,9.0,3.98,-0.04,0.28,0.04,826.55,1005.52,0,10,1
-2.89,8.28,3.9,0.39,0.56,0.7,578.12,622.33,0,10,1
-1.57,8.25,2.8,0.88,1.09,1.51,426.67,497.05,0,10,1
-0.39,7.18,1.16,1.14,0.54,2.6,349.84,425.98,0,10,1
3.03,6.97,0.09,1.05,0.58,3.07,0.0,345.63,0,10,1
6.86,6.1,-1.05,0.78,0.4,3.19,334.67,492.7,0,10,1
12.11,3.66,-1.82,0.28,0.57,2.47,422.28,587.8,0,10,1
11.77,2.2,-1.22,0.07,0.16,1.56,0.0,0.0,0,10,1
10.95,1.54,-0.36,-0.07,0.03,1.21,0.0,0.0,0,10,1
10.01,0.72,-0.51,0.08,0.23,0.94,0.0,0.0,0,10,1
11.61,-0.11,-1.24,-0.11,-0.02,0.78,0.0,0.0,0,10,1
11.96,-0.49,0.37,-0.06,0.12,-0.05,0.0,0.0,0,10,1
9.21,0.09,-0.23,-0.09,0.1,-0.07,0.0,0.0,0,10,1
10.47,-0.27,0.21,-0.08,-0.05,0.1,0.0,0.0,0,10,1
10.07,-0.34,-0.55,-0.1,-0.15,0.07,0.0,0.0,0,10,1
10.39,-0.23,-0.07,-0.06,0.02,0.02,0.0,0.0,0,10,1
10.35,-0.17,-0.45,-0.03,0.13,0.05,0.0,0.0,0,10,1
10.49,-0.18,-0.29,-0.1,0.09,0.03,0.0,0.0,0,10,1
10.48,-0.24,-0.02,-0.11,-0.02,-0.09,0.0,0.0,0,10,1
10.24,-0.11,-0.04,-0.08,-0.03,-0.06,0.0,0.0,0,10,1
10.33,0.19,-0.29,-0.05,-0.04,-0.31,0.0,326.14,0,10,1
12.03,0.44,-0.8,-0.15,-0.41,-0.52,404.44,583.19,0,10,1
12.16,0.98,-0.93,-0.32,-0.07,-1.3,383.74,516.24,0,10,1
11.0,2.63,-1.68,-0.52,-0.4,-1.86,420.2,683.37,0,10,1
10.86,3.73,-1.73,-0.99,-0.64,-2.51,479.45,685.8,0,10,1
6.68,4.83,-0.71,-1.15,-0.62,-2.8,484.52,689.52,0,10,1
3.71,6.14,-0.11,-1.17,-0.57,-2.43,641.74,918.84,0,10,1
2.93,8.6,0.23,-1.23,-0.34,-2.24,802.92,1121.43,0,10,1
-1.9,7.09,3.41,-1.12,-0.21,-1.81,530.48,718.79,0,10,1
-1.63,8.7,3.6,-0.63,-0.26,-0.78,849.25,1221.96,0,10,1
-2.5,8.69,4.12,-0.42,0.2,-0.67,1027.41,1301.49,0,10,1
-2.8,8.19,4.12,-0.11,0.03,0.09,737.46,897.33,0,10,1
-3.05,8.14,4.48,0.36,0.54,1.03,538.27,585.02,0,10,1
-2.4,7.31,3.92,1.02,1.35,2.11,423.12,466.51,0,10,1
0.84,7.59,2.24,1.34,0.52,2.85,332.51,402.48,0,10,1
4.26,6.18,-0.13,1.16,0.96,3.04,0.0,309.89,0,10,1
7.47,4.73,-0.74,0.65,0.23,3.05,0.0,390.06,0,10,1
10.78,3.33,-1.04,0.38,0.67,2.33,0.0,317.84,0,10,1
11.23,2.29,-0.74,0.18,0.19,1.42,0.0,0.0,0,10,1
10.22,1.66,-0.51,0.25,0.02,1.13,0.0,305.72,0,10,1
10.64,0.12,-0.89,0.01,-0.29,1.07,0.0,0.0,0,10,1
11.56,-0.7,-0.21,-0.06,0.1,0.71,0.0,0.0,0,10,1
11.83,-0.34,-0.65,-0.04,-0.05,0.02,0.0,337.24,0,10,1
9.47,-0.15,-0.22,-0.06,0.11,-0.1,0.0,0.0,0,10,1
10.28,-0.4,-0.3,-0.09,0.17,-0.03,0.0,0.0,0,10,1
10.07,-0.22,0.01,-0.08,0.23,-0.08,0.0,0.0,0,10,1
9.83,-0.29,0.31,-0.03,0.07,0.0,0.0,0.0,0,10,1
10.07,-0.51,0.27,-0.06,0.13,0.02,0.0,0.0,0,10,1
10.32,-0.22,0.29,-0.05,0.15,-0.0,0.0,0.0,0,10,1
10.74,-0.16,0.49,-0.07,-0.05,-0.0,0.0,0.0,0,10,1
11.64,-0.17,0.32,-0.01,-0.34,-0.31,0.0,375.89,0,10,1
12.52,0.15,-0.5,-0.27,0.2,-1.17,374.29,526.94,0,10,1
13.15,1.39,-1.19,-0.6,0.07,-2.45,358.73,486.37,0,10,1
8.16,2.09,-0.5,-1.01,0.67,-3.02,663.32,945.88,0,10,1
7.11,5.73,-0.88,-1.23,-0.46,-3.16,1009.75,1341.31,0,10,1
2.74,3.93,2.51,-1.89,-0.76,-3.4,1156.57,1525.86,1,10,1
-3.75,7.63,6.84,0.45,0.88,0.49,804.14,847.45,0,11,1
-1.74,8.29,4.17,1.13,1.07,1.62,522.85,579.84,0,11,1
0.53,7.61,1.71,1.41,0.63,2.26,408.16,443.73,0,11,1
3.14,7.36,0.01,1.14,0.97,2.7,313.45,362.7,0,11,1
6.66,6.4,-1.2,0.58,0.47,3.08,0.0,369.34,0,11,1
11.26,4.27,-1.49,0.12,0.41,2.64,333.13,450.25,0,11,1
10.03,1.93,-0.17,-0.18,0.17,1.81,0.0,305.23,0,11,1
11.04,0.85,-0.33,-0.32,0.19,1.28,0.0,0.0,0,11,1
10.59,0.28,0.5,-0.03,-0.3,1.12,0.0,320.47,0,11,1
11.38,-0.38,-0.19,0.12,0.15,0.74,0.0,360.35,0,11,1
10.69,-0.47,-0.11,-0.02,0.36,0.29,0.0,374.4,0,11,1
10.53,-0.6,0.23,-0.12,0.08,-0.12,0.0,0.0,0,11,1
10.24,-0.48,0.39,-0.11,0.03,-0.03,0.0,0.0,0,11,1
9.91,-0.58,0.45,-0.13,0.12,-0.1,0.0,0.0,0,11,1
10.08,-0.49,0.4,-0.08,0.06,-0.04,0.0,0.0,0,11,1
10.13,-0.33,0.34,-0.09,0.04,0.01,0.0,0.0,0,11,1
10.18,-0.47,0.41,-0.08,0.05,0.0,0.0,0.0,0,11,1
10.22,-0.38,0.24,-0.1,0.0,0.0,0.0,0.0,0,11,1
10.36,-0.37,0.35,-0.11,-0.01,-0.02,0.0,370.82,0,11,1
11.19,-0.39,0.62,-0.1,-0.16,-0.39,0.0,304.19,0,11,1
11.82,0.28,-0.49,-0.21,0.3,-1.03,0.0,367.84,0,11,1
11.86,1.55,-0.5,-0.38,0.07,-1.61,0.0,0.0,0,11,1
12.21,2.81,-1.28,-0.7,-0.34,-2.38,495.18,704.44,0,11,1
10.71,3.94,-1.56,-1.19,-0.55,-3.06,867.09,1174.92,0,11,1
4.61,4.56,1.16,-1.46,-0.54,-3.01,1064.79,1454.2,1,11,1
-0.65,9.4,4.75,-0.39,-0.43,-0.38,1069.14,1383.13,0,12,1
-2.52,8.17,5.24,0.21,-0.09,0.65,909.59,1098.89,0,12,1
-4.78,8.14,5.32,0.57,0.92,0.8,586.09,647.9,0,12,1
0.51,8.15,3.55,1.19,1.34,1.37,489.38,601.9,0,12,1
-0.18,8.09,1.25,1.53,0.89,2.24,302.08,347.69,0,12,1
2.57,7.54,-0.64,1.05,1.05,2.75,326.96,393.93,0,12,1
5.65,6.19,-1.22,0.64,0.14,3.22,346.47,499.16,0,12,1
10.24,3.87,-1.36,0.17,0.33,2.95,354.87,520.78,0,12,1
10.64,1.09,-0.06,-0.05,0.42,2.33,0.0,351.57,0,12,1
11.33,0.04,-0.44,-0.15,0.35,1.63,0.0,0.0,0,12,1
11.85,-0.67,0.16,-0.01,0.05,1.08,0.0,0.0,0,12,1
11.83,-0.99,0.14,0.02,0.19,0.18,0.0,303.46,0,12,1
9.45,-0.42,0.44,-0.1,0.21,-0.06,0.0,0.0,0,12,1
10.19,-0.58,0.51,-0.07,0.06,-0.05,0.0,0.0,0,12,1
9.94,-0.53,0.34,-0.11,0.04,-0.02,0.0,0.0,0,12,1
9.95,-0.55,0.4,-0.12,0.04,-0.01,0.0,0.0,0,12,1
10.11,-0.54,0.38,-0.1,0.05,-0.0,0.0,0.0,0,12,1
10.16,-0.5,0.43,-0.06,-0.03,0.01,0.0,0.0,0,12,1
10.07,-0.45,0.47,-0.09,-0.03,-0.0,0.0,0.0,0,12,1
10.98,-0.59,0.33,-0.11,-0.16,-0.14,0.0,0.0,0,12,1
10.91,-0.17,0.07,-0.13,-0.08,-0.46,0.0,0.0,0,12,1
11.89,0.56,0.13,-0.21,-0.03,-1.03,301.81,401.51,0,12,1
11.18,1.43,-0.25,-0.31,0.19,-1.44,426.08,581.24,0,12,1
12.15,2.62,-1.19,-0.63,-0.34,-2.03,320.22,384.25,0,12,1
10.2,4.35,-0.37,-0.95,-0.42,-2.56,454.27,668.8,0,12,1
7.16,5.81,0.09,-1.03,-0.7,-2.96,634.23,893.09,0,12,1
3.2,5.92,1.81,-1.37,-0.58,-2.88,750.74,1035.98,0,12,1
0.15,6.64,2.51,-1.28,-0.29,-2.29,675.95,848.09,0,12,1
-1.12,5.98,3.91,-1.26,-0.37,-1.98,1016.71,1327.97,0,12,1
-2.02,8.02,5.75,-0.56,-0.2,-0.77,1234.96,1532.05,1,12,1
-2.02,7.09,5.2,1.12,1.14,1.91,878.38,933.93,0,13,1
0.13,7.66,2.76,1.6,0.94,2.53,571.07,607.28,0,13,1
3.13,7.57,0.08,1.16,0.97,2.81,381.77,426.06,0,13,1
6.22,6.22,-0.86,0.72,-0.16,2.94,315.76,378.42,0,13,1
9.25,4.78,-0.97,0.28,0.22,2.42,318.19,407.5,0,13,1
11.57,3.37,-0.4,0.14,0.33,1.67,0.0,305.19,0,13,1
10.43,2.82,-0.22,0.05,0.09,1.11,0.0,0.0,0,13,1
9.57,1.98,-0.13,0.07,0.2,0.96,0.0,0.0,0,13,1
10.77,0.92,-0.07,0.01,0.07,1.01,0.0,0.0,0,13,1
12.01,0.49,-0.19,-0.15,0.38,0.4,0.0,0.0,0,13,1
10.87,0.49,0.57,-0.12,0.11,0.01,0.0,0.0,0,13,1
10.13,0.43,0.1,-0.03,0.03,0.03,0.0,0.0,0,13,1
10.09,0.2,0.49,-0.11,0.08,0.02,0.0,0.0,0,13,1
10.02,0.3,0.25,-0.06,0.11,-0.01,0.0,0.0,0,13,1
10.13,0.46,0.48,-0.07,0.04,0.04,0.0,0.0,0,13,1
10.14,0.29,0.36,-0.06,0.08,-0.0,0.0,0.0,0,13,1
10.72,0.24,0.53,-0.07,0.01,-0.08,0.0,0.0,0,13,1
10.46,0.59,0.59,0.01,-0.05,-0.24,335.28,520.38,0,13,1
11.22,0.89,0.11,-0.03,-0.15,-0.65,0.0,367.67,0,13,1
11.06,1.66,-0.58,-0.37,0.29,-1.27,0.0,0.0,0,13,1
10.5,2.76,-0.11,-0.52,-0.18,-1.55,0.0,349.88,0,13,1
10.12,4.19,-0.57,-0.7,-0.29,-1.95,400.63,516.3,0,13,1
9.41,5.42,-0.4,-1.04,-0.75,-2.33,477.65,640.12,0,13,1
6.04,6.36,0.26,-1.26,-0.61,-2.73,594.8,820.09,0,13,1
3.21,8.37,0.84,-1.41,-0.7,-2.67,832.94,1165.95,0,13,1
-0.91,5.69,3.35,-1.5,-0.32,-2.44,885.92,1249.62,0,13,1
-1.08,7.95,3.98,-0.9,-0.2,-1.48,1036.55,1400.86,1,13,1
-2.66,8.03,4.81,0.69,1.53,1.28,680.09,720.51,0,14,1
-1.41,8.17,3.58,1.0,1.44,2.0,442.64,477.42,0,14,1
0.31,7.39,2.45,1.23,0.86,2.6,338.91,374.54,0,14,1
4.29,7.62,-0.16,1.06,0.82,2.89,306.3,456.91,0,14,1
7.82,6.0,-0.71,0.56,0.09,2.92,344.95,493.95,0,14,1
10.6,3.84,-0.38,0.22,0.3,2.33,325.99,418.9,0,14,1
10.31,2.61,-0.05,-0.02,0.33,1.68,0.0,0.0,0,14,1
9.96,1.63,0.96,0.05,0.1,1.47,0.0,0.0,0,14,1
10.63,0.47,0.38,0.19,0.05,1.49,0.0,0.0,0,14,1
14.44,-0.5,-0.32,-0.06,0.37,0.42,0.0,0.0,0,14,1
9.21,0.09,1.65,-0.12,0.37,-0.22,0.0,0.0,0,14,1
10.36,-0.11,0.45,-0.03,-0.1,0.11,0.0,0.0,0,14,1
9.71,-0.15,1.29,-0.16,0.19,-0.07,0.0,0.0,0,14,1
9.99,-0.1,1.18,-0.05,0.01,-0.0,0.0,0.0,0,14,1
10.0,0.08,1.07,-0.08,0.02,-0.01,0.0,0.0,0,14,1
10.05,0.05,1.07,-0.07,-0.01,0.04,0.0,0.0,0,14,1
10.13,-0.01,1.04,-0.06,-0.02,-0.0,0.0,0.0,0,14,1
10.14,0.07,0.96,-0.07,0.01,-0.01,0.0,0.0,0,14,1
10.85,-0.03,1.04,-0.09,-0.05,-0.14,0.0,339.81,0,14,1
11.64,0.59,0.56,-0.09,-0.13,-0.46,0.0,411.76,0,14,1
11.67,0.87,0.44,-0.17,-0.04,-1.07,403.86,580.6,0,14,1
10.63,2.16,-0.02,-0.46,0.18,-1.65,0.0,0.0,0,14,1
9.17,3.3,0.51,-0.58,-0.34,-1.77,375.89,520.49,0,14,1
8.78,4.59,0.79,-0.71,-0.25,-2.05,360.38,490.96,0,14,1
7.75,6.63,-0.02,-0.95,-0.77,-2.42,602.51,854.33,0,14,1
5.39,5.87,1.07,-1.62,-0.14,-3.3,717.71,966.35,0,14,1
0.51,6.79,4.48,-1.38,-0.6,-2.15,597.91,809.84,0,14,1
1.37,8.01,5.44,-1.04,-0.41,-1.95,862.89,1196.67,0,14,1
0.04,7.52,4.85,-0.79,-0.84,-1.46,1193.68,1585.81,1,14,1
-1.48,7.43,5.18,1.04,1.47,1.83,748.19,787.35,0,15,1
0.25,7.32,3.73,1.52,1.04,2.43,520.39,552.05,0,15,1
1.88,7.29,1.51,1.52,0.53,2.81,355.36,417.26,0,15,1
4.58,6.78,-0.64,0.88,0.5,2.98,0.0,310.27,0,15,1
9.5,5.65,-1.7,0.17,0.62,2.61,548.22,739.37,0,15,1
9.85,3.59,1.1,-0.12,0.27,1.9,328.06,379.07,0,15,1
10.11,2.65,0.84,-0.04,0.26,1.47,0.0,325.05,0,15,1
10.29,1.91,0.4,-0.1,0.19,1.23,0.0,0.0,0,15,1
12.67,1.05,0.99,-0.03,-0.2,0.61,0.0,0.0,0,15,1
11.29,0.99,0.87,-0.13,0.15,-0.12,0.0,0.0,0,15,1
9.71,1.13,1.17,-0.06,-0.34,0.14,0.0,0.0,0,15,1
9.84,1.0,1.15,-0.07,0.23,-0.02,0.0,0.0,0,15,1
10.12,0.97,1.18,-0.03,0.02,0.04,0.0,0.0,0,15,1
9.89,1.12,1.17,-0.05,0.05,0.01,0.0,0.0,0,15,1
9.96,0.94,1.16,-0.05,0.02,0.01,0.0,0.0,0,15,1
10.24,1.07,1.1,-0.05,0.02,-0.04,0.0,0.0,0,15,1
9.96,1.13,1.28,-0.07,0.16,-0.13,0.0,354.5,0,15,1
10.47,1.28,1.35,-0.05,0.04,-0.2,0.0,452.91,0,15,1
10.85,1.67,1.12,-0.07,-0.05,-0.55,0.0,316.34,0,15,1
11.32,2.34,0.82,-0.15,-0.16,-0.9,388.08,561.58,0,15,1
10.74,3.17,0.52,-0.29,0.0,-1.36,437.43,660.09,0,15,1
10.2,4.15,0.03,-0.54,-0.39,-1.82,0.0,346.71,0,15,1
8.05,5.72,0.38,-0.83,-0.48,-1.96,425.17,656.6,0,15,1
6.85,6.25,1.52,-1.0,-0.49,-2.48,458.1,574.89,0,15,1
3.39,7.72,2.07,-1.31,-0.97,-2.45,624.92,889.03,0,15,1
2.99,8.13,2.21,-1.56,-0.95,-2.78,590.18,815.36,0,15,1
-0.05,6.72,5.03,-1.39,-0.42,-2.5,673.93,822.87,0,15,1
-1.52,7.29,5.81,-0.69,-0.94,-1.08,1026.73,1394.19,0,15,1
-0.64,8.03,5.33,-0.45,-0.7,-0.46,1123.75,1426.98,1,15,1
-2.38,7.18,6.25,1.07,1.74,1.58,735.83,788.23,0,16,1
-1.89,7.13,4.29,1.48,1.02,2.3,433.87,496.61,0,16,1
0.08,7.74,2.0,1.56,0.99,2.61,595.21,911.48,0,16,1
2.81,7.12,-0.66,1.08,0.94,2.98,456.7,527.27,0,16,1
6.6,5.54,-1.06,0.46,0.53,3.25,409.1,497.89,0,16,1
10.96,3.55,-0.33,0.03,0.52,2.8,307.13,349.63,0,16,1
11.25,1.96,0.04,-0.08,0.52,1.76,319.5,354.04,0,16,1
10.7,0.93,0.49,-0.24,0.08,1.26,0.0,0.0,0,16,1
12.35,0.44,0.32,-0.18,0.38,0.48,0.0,0.0,0,16,1
10.47,0.56,0.74,-0.14,0.24,-0.12,0.0,0.0,0,16,1
9.61,0.64,0.9,-0.04,0.02,0.04,0.0,0.0,0,16,1
10.08,0.58,1.05,-0.1,0.03,0.0,0.0,0.0,0,16,1
9.97,0.7,1.09,-0.04,0.1,-0.02,0.0,0.0,0,16,1
10.0,0.87,1.18,-0.08,0.02,-0.01,0.0,0.0,0,16,1
10.17,0.79,1.1,-0.07,0.05,0.02,0.0,0.0,0,16,1
10.29,0.73,1.23,-0.07,0.01,-0.04,0.0,0.0,0,16,1
11.3,0.83,1.35,-0.02,0.14,-0.39,0.0,377.46,0,16,1
11.96,1.65,0.35,-0.05,-0.25,-1.0,373.13,538.94,0,16,1
10.6,2.46,0.38,-0.38,0.12,-1.45,507.74,827.99,0,16,1
9.32,3.53,1.0,-0.52,-0.18,-1.8,469.29,618.25,0,16,1
8.86,5.05,0.22,-0.76,-0.24,-2.1,445.85,628.7,0,16,1
7.01,5.95,1.24,-0.98,-0.69,-2.32,395.33,501.66,0,16,1
5.28,6.71,1.45,-1.24,-0.99,-2.42,538.56,830.65,0,16,1
2.61,7.81,2.57,-1.31,-0.71,-2.15,478.02,660.4,0,16,1
0.06,7.17,4.23,-1.19,-0.57,-1.59,565.41,780.77,0,16,1
0.31,6.27,4.87,-1.2,-0.33,-1.76,958.75,1395.08,0,16,1
-0.58,7.15,5.73,-0.67,-0.22,-0.91,1009.2,1353.28,0,16,1
-1.58,7.11,6.63,-0.35,-0.2,-0.38,1104.11,1414.24,1,16,1
-2.5,7.03,5.54,1.1,1.64,1.79,882.99,922.94,0,17,1
-0.29,7.04,3.82,1.53,1.62,2.24,479.74,541.7,0,17,1
1.33,8.44,0.34,1.39,1.01,2.49,452.54,525.99,0,17,1
2.72,7.2,-0.28,0.5,1.15,2.99,426.99,476.02,0,17,1
7.91,6.12,-0.6,0.08,-0.23,3.13,325.77,378.99,0,17,1
12.28,4.05,0.64,-0.17,-0.05,2.26,447.05,586.32,0,17,1
9.81,2.96,1.28,-0.19,0.32,1.36,325.39,414.35,0,17,1
9.6,2.28,1.2,-0.08,0.64,0.97,0.0,0.0,0,17,1
10.08,1.46,0.95,0.01,-0.26,1.12,0.0,0.0,0,17,1
12.44,0.62,0.51,-0.05,0.27,0.7,0.0,0.0,0,17,1
11.02,0.81,1.07,-0.12,0.29,-0.17,0.0,0.0,0,17,1
9.43,1.03,0.93,-0.09,-0.17,0.1,0.0,0.0,0,17,1
10.27,0.66,1.32,-0.14,0.12,0.0,0.0,0.0,0,17,1
9.92,0.79,1.09,-0.06,0.01,0.04,0.0,0.0,0,17,1
9.98,0.7,1.28,-0.08,0.09,0.01,0.0,0.0,0,17,1
10.01,0.87,1.08,-0.05,0.06,0.02,0.0,0.0,0,17,1
9.86,0.7,1.21,-0.08,0.04,0.01,0.0,0.0,0,17,1
9.99,0.69,1.11,-0.09,0.04,0.0,0.0,0.0,0,17,1
10.16,0.73,1.11,-0.09,0.0,-0.03,0.0,0.0,0,17,1
11.07,0.83,1.51,-0.06,0.13,-0.27,347.23,549.98,0,17,1
11.48,1.31,0.84,0.01,-0.26,-0.83,356.17,486.01,0,17,1
11.49,2.12,0.34,-0.32,0.16,-1.49,358.32,571.26,0,17,1
9.01,3.43,0.94,-0.5,-0.26,-1.91,306.1,386.53,0,17,1
8.59,4.8,0.73,-0.77,-0.26,-1.98,376.98,575.63,0,17,1
8.1,6.44,0.32,-0.98,-0.62,-2.27,467.73,671.37,0,17,1
5.29,6.11,0.89,-1.34,-0.87,-2.52,507.97,670.44,0,17,1
4.02,7.15,1.82,-1.75,-0.7,-2.4,449.71,600.84,0,17,1
0.98,8.11,3.91,-1.27,-0.54,-1.76,582.55,793.45,0,17,1
1.86,7.67,4.13,-1.56,-0.68,-2.33,706.13,1101.0,0,17,1
-3.98,6.87,7.17,-0.54,-0.05,-0.52,950.59,1270.52,0,17,1
-1.69,7.21,6.08,-0.26,0.18,-0.22,1130.27,1428.15,1,17,1
-2.42,6.83,6.05,1.26,1.98,1.76,719.84,783.53,0,18,1
-1.14,7.46,2.99,1.38,1.16,2.39,436.8,516.57,0,18,1
0.29,7.92,1.21,1.05,0.72,2.79,451.68,530.15,0,18,1
3.5,7.39,0.32,0.38,0.7,3.04,408.36,472.68,0,18,1
7.91,6.07,0.62,-0.01,0.0,2.92,362.0,431.16,0,18,1
9.73,4.04,1.37,-0.09,0.53,2.05,350.6,394.83,0,18,1
8.94,2.71,1.37,-0.09,0.02,1.54,0.0,335.22,0,18,1
10.45,2.23,0.68,-0.09,-0.23,1.17,0.0,0.0,0,18,1
10.3,1.51,1.49,0.01,-0.32,0.95,0.0,0.0,0,18,1
12.31,1.08,0.22,-0.02,-0.12,0.34,0.0,0.0,0,18,1
9.92,1.17,1.07,-0.11,0.4,-0.17,0.0,0.0,0,18,1
10.08,1.23,0.39,-0.08,-0.11,0.13,0.0,0.0,0,18,1
10.26,0.91,1.09,-0.11,0.11,0.0,0.0,0.0,0,18,1
10.02,1.18,0.65,-0.04,-0.0,0.0,0.0,0.0,0,18,1
10.03,1.19,0.94,-0.1,0.04,0.01,0.0,0.0,0,18,1
10.17,1.27,0.8,-0.06,-0.0,0.02,0.0,0.0,0,18,1
10.63,1.22,1.02,-0.06,0.02,-0.1,0.0,367.08,0,18,1
11.29,1.55,0.9,-0.02,-0.05,-0.65,0.0,0.0,0,18,1
11.44,2.38,0.13,-0.3,0.08,-1.3,391.17,581.83,0,18,1
9.68,3.09,0.8,-0.47,0.11,-1.68,0.0,310.43,0,18,1
9.02,4.34,0.96,-0.79,-0.07,-2.08,500.03,798.12,0,18,1
7.95,5.47,1.61,-0.98,-0.53,-2.27,452.88,627.54,0,18,1
5.63,6.52,1.68,-1.02,-0.88,-2.43,494.79,679.73,0,18,1
3.42,6.94,1.96,-1.22,-0.28,-2.08,613.17,929.84,0,18,1
1.72,8.51,2.59,-1.33,-0.2,-2.14,501.3,669.63,0,18,1
-0.81,7.7,5.5,-1.24,-0.94,-1.7,701.87,939.7,0,18,1
-2.31,6.87,6.78,-0.83,-0.26,-1.35,1080.62,1482.93,1,18,1
-2.09,7.01,6.59,0.42,0.62,0.57,669.43,784.91,0,19,1
-2.34,7.55,5.47,1.08,1.53,1.57,464.62,523.87,0,19,1
-2.44,7.27,4.23,1.31,1.47,2.26,386.43,448.83,0,19,1
0.82,7.18,2.34,1.17,0.93,2.73,505.75,588.19,0,19,1
3.95,7.11,1.44,1.07,0.88,3.03,525.7,635.34,0,19,1
8.06,5.87,-0.15,0.73,0.26,3.06,388.64,475.82,0,19,1
11.28,3.94,0.22,0.09,0.0,2.24,337.76,432.06,0,19,1
10.3,3.17,0.77,-0.01,0.32,1.4,0.0,0.0,0,19,1
9.86,2.39,0.91,-0.01,0.09,1.12,0.0,0.0,0,19,1
11.21,1.53,0.83,-0.03,-0.18,0.92,0.0,0.0,0,19,1
12.48,1.07,0.62,-0.09,0.27,0.06,0.0,0.0,0,19,1
8.33,1.47,1.59,-0.1,0.29,-0.01,0.0,0.0,0,19,1
10.53,1.16,1.02,-0.1,0.02,0.07,0.0,0.0,0,19,1
9.58,1.3,1.24,-0.06,0.14,-0.01,0.0,0.0,0,19,1
10.02,1.22,1.3,-0.07,0.04,0.03,0.0,0.0,0,19,1
9.87,1.38,1.27,-0.08,0.05,0.02,0.0,0.0,0,19,1
10.11,1.33,1.46,-0.06,0.07,-0.04,0.0,324.25,0,19,1
10.68,1.37,1.38,-0.01,0.06,-0.26,0.0,383.99,0,19,1
10.8,1.77,1.16,-0.0,-0.11,-0.51,303.18,421.94,0,19,1
11.34,2.47,0.63,-0.22,-0.02,-0.99,0.0,0.0,0,19,1
9.85,3.27,0.97,-0.36,0.1,-1.41,319.55,414.36,0,19,1
8.91,4.45,0.74,-0.6,-0.43,-1.67,0.0,389.66,0,19,1
8.28,5.61,0.76,-0.94,-0.74,-1.93,385.0,577.64,0,19,1
6.34,6.22,1.75,-1.11,-0.75,-2.14,538.4,816.61,0,19,1
5.03,6.98,1.89,-1.18,-0.72,-2.42,567.47,826.31,0,19,1
1.36,7.24,3.12,-1.36,-0.56,-2.09,511.17,655.6,0,19,1
0.5,7.58,4.14,-1.01,-0.32,-1.64,744.94,1056.44,0,19,1
0.22,7.64,4.58,-1.13,-0.29,-1.94,908.32,1327.73,0,19,1
-3.7,6.38,7.24,-0.58,-0.18,-0.91,1014.95,1359.77,0,19,1
-2.81,6.87,6.27,-0.28,0.11,-0.24,942.77,1228.94,0,19,1
-5.33,6.9,7.47,-0.13,0.19,-0.06,1067.92,1374.52,0,19,1
-4.12,6.86,6.26,-0.03,0.03,0.19,1030.62,1267.26,0,19,1
-2.88,7.02,6.25,0.01,0.15,0.3,723.5,886.99,0,19,1
-3.54,6.51,6.66,0.64,1.16,1.23,524.47,601.75,0,19,1
-4.1,7.17,5.2,1.18,1.61,2.21,539.87,601.84,0,19,1
-1.63,7.7,3.06,1.44,0.91,2.78,499.86,576.18,0,19,1
1.67,6.99,1.07,1.14,1.16,3.07,419.91,508.1,0,19,1
5.19,5.9,-0.13,0.58,0.23,3.29,320.8,399.15,0,19,1
9.59,4.43,-0.07,0.12,0.65,3.08,320.57,394.0,0,19,1
12.03,2.72,1.23,-0.09,0.0,2.08,0.0,305.14,0,19,1
9.79,2.01,1.37,-0.07,0.35,1.27,0.0,0.0,0,19,1
10.62,1.37,1.32,-0.05,-0.17,1.08,0.0,0.0,0,19,1
12.69,0.93,1.02,-0.05,0.07,0.24,0.0,0.0,0,19,1
9.78,1.11,1.48,-0.07,0.27,-0.24,0.0,0.0,0,19,1
9.47,1.17,1.34,-0.05,0.09,-0.02,0.0,0.0,0,19,1
10.1,1.27,1.06,-0.09,0.03,-0.01,0.0,0.0,0,19,1
10.09,1.26,1.42,-0.05,0.07,-0.02,0.0,0.0,0,19,1
11.77,1.29,1.49,-0.03,-0.04,-0.5,361.24,486.38,0,19,1
12.1,1.84,1.02,-0.19,0.26,-1.41,438.33,740.34,0,19,1
10.53,3.19,0.99,-0.43,0.04,-2.03,360.19,521.55,0,19,1
9.38,4.5,0.96,-0.72,-0.59,-2.54,405.37,544.12,0,19,1
6.82,5.49,0.91,-1.09,-1.01,-2.7,366.67,465.56,0,19,1
4.26,7.21,1.61,-1.17,-1.36,-2.46,553.29,796.78,0,19,1
3.77,7.88,2.02,-1.46,-0.92,-2.55,538.86,670.02,0,19,1
0.78,7.46,3.59,-1.4,-0.03,-2.56,498.18,718.73,0,19,1
-0.86,8.71,4.48,-0.69,-0.59,-1.08,772.68,1103.33,0,19,1
-3.4,6.86,6.18,-0.51,-0.68,-0.84,987.22,1306.23,0,19,1
-1.42,7.12,5.12,-0.34,-0.62,-0.41,1251.32,1587.98,1,19,1
-2.75,7.34,5.6,0.57,0.56,1.09,678.55,770.6,0,20,1
-2.49,7.65,4.61,0.92,1.09,1.52,523.82,596.32,0,20,1
-0.61,7.65,3.97,1.11,0.86,2.21,526.54,576.92,0,20,1
1.25,7.67,2.77,1.13,0.59,2.7,538.65,625.52,0,20,1
4.53,7.0,0.88,1.02,0.7,3.08,408.7,468.4,0,20,1
8.02,5.39,-0.24,0.7,-0.17,3.04,344.59,431.48,0,20,1
10.82,3.68,0.15,0.38,0.56,2.4,317.32,394.68,0,20,1
11.35,1.89,1.02,0.4,-0.14,1.65,0.0,331.9,0,20,1
10.21,1.64,-1.22,0.09,0.22,1.28,0.0,315.84,0,20,1
12.01,0.47,0.73,-0.1,0.41,0.78,0.0,303.36,0,20,1
11.11,0.64,0.12,0.03,0.12,0.08,0.0,0.0,0,20,1
10.56,0.21,1.26,-0.15,-0.47,0.13,0.0,0.0,0,20,1
8.87,0.42,1.35,-0.05,0.13,-0.02,0.0,0.0,0,20,1
9.96,0.25,1.44,-0.08,0.34,0.0,0.0,0.0,0,20,1
9.73,0.49,1.59,-0.04,0.09,0.03,0.0,0.0,0,20,1
10.02,0.51,1.52,-0.06,0.03,-0.02,0.0,0.0,0,20,1
10.1,0.47,1.64,-0.05,0.07,-0.06,0.0,0.0,0,20,1
11.97,0.55,1.8,-0.02,0.13,-0.4,0.0,447.03,0,20,1
12.28,1.34,0.75,-0.08,-0.2,-1.19,0.0,306.69,0,20,1
10.52,2.31,1.32,-0.35,0.19,-1.75,375.57,583.04,0,20,1
8.99,3.57,1.28,-0.57,-0.32,-2.06,306.76,399.95,0,20,1
8.04,5.13,0.99,-0.83,-0.98,-2.24,335.62,457.14,0,20,1
8.49,7.36,-0.1,-1.34,-1.73,-2.59,559.29,940.02,0,20,1
4.58,7.25,1.55,-1.39,-0.78,-2.28,538.83,673.79,0,20,1
2.36,7.73,2.86,-1.32,-0.48,-2.16,692.24,1013.59,0,20,1
-0.6,5.45,5.69,-1.25,-0.31,-1.93,795.84,1132.7,0,20,1
-2.33,6.98,6.32,-1.03,0.03,-1.41,913.6,1204.89,0,20,1
-3.29,7.62,6.85,-0.44,-0.13,-0.75,930.45,1283.37,0,20,1
-2.48,6.79,6.06,-0.19,0.17,-0.21,925.24,1151.68,0,20,1
-5.2,6.61,6.85,-0.1,0.28,-0.07,1044.9,1336.99,0,20,1
-3.3,7.05,6.4,0.07,0.63,0.22,595.08,681.33,0,20,1
-2.77,7.05,6.2,0.74,1.05,1.54,434.64,497.64,0,20,1
-2.0,6.73,4.91,1.11,1.16,2.42,456.96,519.39,0,20,1
1.26,7.03,3.32,1.15,0.99,3.03,436.54,508.03,0,20,1
5.23,6.67,0.76,1.11,0.78,3.14,401.61,471.07,0,20,1
7.47,5.43,1.39,0.37,0.63,2.98,430.45,522.35,0,20,1
10.1,3.89,1.75,0.12,0.75,2.16,375.73,468.36,0,20,1
9.23,2.93,1.87,0.13,-0.17,1.69,304.99,355.43,0,20,1
8.91,1.62,0.95,0.05,-0.59,1.62,0.0,301.31,0,20,1
12.63,0.52,0.5,0.15,-0.14,1.39,335.82,422.03,0,20,1
11.73,0.06,1.2,-0.15,0.47,-0.17,0.0,322.53,0,20,1
9.17,0.84,1.63,-0.09,0.08,0.05,0.0,0.0,0,20,1
10.72,0.21,1.39,-0.11,0.05,0.01,0.0,0.0,0,20,1
9.47,0.5,1.85,-0.07,0.04,-0.03,0.0,0.0,0,20,1
9.92,0.56,1.67,-0.07,0.19,-0.03,0.0,0.0,0,20,1
10.24,0.68,1.7,-0.07,-0.0,-0.1,0.0,0.0,0,20,1
11.27,0.72,1.23,-0.09,-0.09,-0.41,0.0,313.71,0,20,1
12.17,1.07,1.79,-0.2,0.31,-1.21,434.96,593.8,0,20,1
10.91,2.07,1.09,-0.34,0.31,-1.79,405.75,536.55,0,20,1
10.02,3.53,1.18,-0.57,-0.37,-2.19,354.81,421.02,0,20,1
8.21,5.19,1.91,-0.64,-1.14,-2.34,367.46,494.21,0,20,1
4.66,6.88,2.22,-0.74,-1.02,-2.69,425.42,551.08,0,20,1
4.93,7.87,0.4,-1.26,-1.36,-2.92,556.75,747.08,0,20,1
0.3,5.49,3.86,-1.57,-0.33,-2.57,818.52,1098.05,0,20,1
-4.03,5.42,6.45,-1.05,-0.2,-1.73,1078.26,1439.5,1,20,1
-3.9,7.08,6.16,0.09,0.37,0.33,620.64,725.9,0,21,1
-2.32,7.79,5.19,0.33,0.48,0.58,532.64,605.47,0,21,1
-3.45,7.24,5.11,0.86,1.87,1.32,378.98,443.06,0,21,1
-2.39,7.42,4.23,1.15,0.97,2.52,355.39,399.56,0,21,1
1.66,7.93,1.88,1.1,0.31,2.98,455.2,541.43,0,21,1
5.51,7.56,0.25,0.4,0.19,2.96,563.98,795.24,0,21,1
8.79,5.25,1.71,0.36,0.76,2.58,501.6,658.86,0,21,1
9.84,3.72,1.83,0.39,0.69,2.0,348.18,403.8,0,21,1
8.81,2.74,1.19,0.21,-0.08,1.69,342.55,392.12,0,21,1
10.93,1.66,0.94,0.05,-0.55,1.4,0.0,330.83,0,21,1
12.11,1.36,1.25,0.0,0.19,0.69,0.0,302.04,0,21,1
10.84,1.15,1.53,-0.1,0.17,0.0,0.0,302.32,0,21,1
9.21,1.17,1.9,-0.08,0.02,0.06,0.0,310.5,0,21,1
10.02,1.06,1.57,-0.09,0.16,0.02,0.0,338.06,0,21,1
9.69,1.09,1.61,-0.07,0.09,0.0,0.0,317.34,0,21,1
9.77,0.98,1.83,-0.04,0.01,0.0,0.0,0.0,0,21,1
9.88,1.08,1.85,-0.04,-0.03,0.03,0.0,319.17,0,21,1
11.27,1.34,1.7,-0.01,0.16,-0.25,322.22,389.79,0,21,1
11.08,1.67,1.41,0.03,-0.25,-0.9,349.07,435.1,0,21,1
10.62,2.4,0.46,-0.4,0.3,-1.48,301.06,359.51,0,21,1
8.77,3.65,1.84,-0.51,-0.21,-1.63,393.17,467.07,0,21,1
8.74,4.89,1.78,-0.62,-0.34,-1.72,356.14,437.74,0,21,1
7.24,5.99,1.56,-0.81,-0.44,-1.99,506.41,695.45,0,21,1
6.62,6.25,1.06,-1.21,-0.64,-2.24,474.29,578.26,0,21,1
2.19,6.6,4.27,-0.83,-0.01,-2.11,562.11,720.35,0,21,1
0.29,7.94,3.66,-1.01,-0.57,-1.91,746.91,1012.07,0,21,1
-1.88,7.24,4.73,-0.95,-0.66,-1.56,811.67,1129.76,0,21,1
0.42,7.44,4.78,-0.94,-0.73,-1.5,917.03,1246.42,0,21,1
0.78,8.79,4.61,-0.38,-0.27,-0.58,893.54,1141.35,0,21,1
-0.58,8.2,5.47,-0.3,-0.26,-0.47,882.23,1144.46,0,21,1
-1.88,7.39,5.87,0.05,0.13,0.26,892.54,1171.87,0,21,1
-3.09,6.88,6.11,0.37,1.31,0.69,565.71,686.12,0,21,1
-2.97,7.22,5.95,1.02,1.51,2.0,459.94,551.02,0,21,1
-0.65,7.06,4.89,1.11,1.12,2.46,453.73,527.38,0,21,1
1.63,7.73,1.69,1.11,0.9,2.93,463.39,524.15,0,21,1
4.61,7.19,0.67,0.64,0.46,3.12,373.0,464.89,0,21,1
8.8,4.97,0.37,0.32,0.02,2.87,455.13,539.06,0,21,1
11.04,3.16,1.03,0.07,0.72,2.11,314.76,379.21,0,21,1
10.82,2.21,0.63,0.11,-0.45,1.32,0.0,325.89,0,21,1
9.57,2.03,0.89,-0.01,-0.13,1.24,0.0,0.0,0,21,1
12.07,1.01,0.61,-0.02,0.2,0.99,0.0,0.0,0,21,1
11.46,0.61,0.97,-0.09,0.33,0.09,0.0,0.0,0,21,1
9.81,0.8,1.19,-0.08,0.14,0.04,0.0,0.0,0,21,1
10.32,0.52,1.32,-0.09,0.06,0.02,0.0,0.0,0,21,1
9.72,0.62,1.31,-0.09,0.14,0.01,0.0,0.0,0,21,1
10.08,0.61,1.44,-0.08,0.06,0.05,0.0,0.0,0,21,1
10.21,0.59,1.47,-0.08,-0.02,-0.01,0.0,0.0,0,21,1
12.15,0.55,1.48,-0.01,-0.44,-0.49,0.0,302.61,0,21,1
12.11,1.33,0.38,-0.15,-0.08,-1.58,0.0,332.04,0,21,1
10.51,2.7,-0.23,-0.62,-0.09,-2.11,375.98,495.41,0,21,1
9.33,4.21,0.37,-0.96,-0.53,-2.3,332.55,429.42,0,21,1
7.02,6.11,0.77,-1.07,-0.47,-2.64,432.59,611.82,0,21,1
4.01,6.07,1.43,-1.47,-0.74,-3.32,715.74,1082.84,0,21,1
1.02,6.62,2.11,-1.04,0.02,-2.45,891.12,1216.02,0,21,1
-1.66,7.4,4.4,-1.07,-0.56,-1.85,953.29,1272.36,0,21,1
-2.14,7.8,5.45,-0.83,-0.16,-1.57,1278.6,1604.45,1,21,1
-2.04,7.7,4.45,0.34,1.05,0.79,920.71,989.39,0,22,1
-0.72,7.33,4.21,0.72,0.97,1.7,572.15,636.92,0,22,1
-1.53,7.02,3.67,1.01,0.8,2.45,346.29,410.9,0,22,1
1.76,7.12,1.79,1.11,0.11,3.17,427.54,507.62,0,22,1
5.59,6.63,1.23,0.83,0.55,3.29,461.1,579.3,0,22,1
10.08,4.19,0.89,0.67,1.07,2.75,549.51,776.09,0,22,1
10.52,2.91,-0.0,0.24,0.02,1.93,383.37,462.43,0,22,1
10.47,2.53,0.01,-0.04,0.07,1.15,329.27,383.35,0,22,1
12.57,2.38,0.3,-0.04,0.0,0.62,309.08,349.74,0,22,1
11.32,2.49,0.27,-0.15,0.39,-0.33,0.0,307.98,0,22,1
9.73,2.7,0.88,-0.23,0.03,0.03,0.0,0.0,0,22,1
9.65,2.54,1.01,-0.25,0.46,-0.03,0.0,0.0,0,22,1
9.73,2.36,2.01,-0.41,0.3,0.08,315.98,408.1,0,22,1
9.54,2.23,1.94,-0.37,0.21,0.04,0.0,306.66,0,22,1
9.39,1.72,2.53,-0.29,0.17,-0.01,0.0,343.74,0,22,1
8.99,1.95,2.8,-0.25,0.23,-0.07,0.0,0.0,0,22,1
9.2,2.13,3.07,-0.19,0.15,-0.12,0.0,330.25,0,22,1
9.16,2.56,3.37,-0.11,0.11,-0.07,0.0,0.0,0,22,1
9.06,2.33,3.19,-0.07,0.09,-0.05,0.0,304.44,0,22,1
8.99,2.6,3.15,-0.1,0.04,-0.06,0.0,378.24,0,22,1
9.18,2.62,3.14,-0.15,0.02,-0.04,0.0,0.0,0,22,1
9.04,2.7,3.12,-0.14,-0.01,0.01,0.0,355.73,0,22,1
9.07,2.6,3.12,-0.12,-0.02,0.04,0.0,0.0,0,22,1
47.0,-0.34,4.73,-0.09,0.03,0.03,0.0,314.19,0,0,1
8.61,-0.48,4.74,-0.06,0.03,0.03,0.0,0.0,0,0,1
8.61,-0.44,4.75,-0.06,0.04,0.02,0.0,0.0,0,0,1
8.47,-0.4,5.11,-0.05,-0.03,-0.0,0.0,0.0,0,0,1
8.48,-0.3,5.63,-0.0,-0.1,-0.04,0.0,0.0,0,0,1
8.36,-0.1,5.66,-0.02,-0.36,-0.03,0.0,0.0,0,0,1
8.66,-0.09,4.71,0.04,-0.58,-0.05,0.0,0.0,0,0,1
8.94,0.11,3.33,0.06,-0.64,-0.08,0.0,0.0,0,0,1
10.01,0.14,2.5,0.02,-0.52,-0.05,0.0,0.0,0,0,1
9.7,0.15,1.71,-0.02,-0.09,0.1,0.0,324.15,0,0,1
9.89,-0.22,1.16,0.06,-0.19,0.15,0.0,310.0,0,0,1
10.19,0.08,1.76,0.16,-0.12,0.06,483.9,683.16,0,0,1
10.32,0.24,1.38,0.1,0.07,-0.11,696.89,887.94,0,0,1
8.78,-0.22,1.98,-0.14,-0.15,0.14,622.66,779.06,0,0,1
16.12,-0.5,1.49,0.04,-0.5,-1.09,668.74,963.12,0,0,1
12.44,0.76,0.23,0.16,0.24,-3.05,659.89,831.49,0,0,1
9.04,3.15,-0.9,-0.78,-0.74,-4.18,850.82,1222.16,0,0,1
1.51,1.48,2.15,-1.58,-0.33,-4.13,1248.26,1533.83,1,0,1
-5.44,7.19,6.55,-0.02,0.57,-0.33,969.22,1210.36,0,1,1
-6.63,6.79,5.81,0.9,1.48,1.51,636.87,749.03,0,1,1
-3.65,6.34,3.07,1.34,1.55,3.23,515.29,607.81,0,1,1
2.76,5.47,0.3,1.49,0.7,4.01,1159.26,1499.96,1,1,1
6.61,3.91,-0.09,0.99,0.65,3.97,1313.38,1654.18,1,1,1
11.27,1.89,-0.75,0.1,0.38,3.22,810.29,1042.97,0,2,1
11.71,0.73,-0.61,-0.33,0.46,2.24,727.76,837.02,0,2,1
12.07,-0.47,1.48,-0.45,0.36,1.7,688.45,768.65,0,2,1
12.64,-1.07,0.93,-0.09,0.27,-0.12,630.24,758.28,0,2,1
9.29,0.01,0.73,-0.08,0.28,-0.07,475.5,551.29,0,2,1
9.85,-0.31,1.18,-0.12,0.13,-0.11,418.19,488.17,0,2,1
9.96,0.05,1.15,-0.08,-0.02,-0.06,474.25,599.64,0,2,1
9.79,0.04,0.98,-0.07,0.09,-0.04,344.73,414.13,0,2,1
10.05,0.01,1.23,-0.12,0.01,0.01,350.53,450.65,0,2,1
9.93,-0.06,1.2,-0.11,0.01,0.01,0.0,308.18,0,2,1
10.15,0.08,0.86,-0.08,-0.03,-0.11,311.41,441.91,0,2,1
10.27,0.13,1.43,-0.08,-0.06,-0.29,303.13,364.46,0,2,1
15.05,0.52,0.13,-0.12,0.33,-1.17,444.36,603.16,0,2,1
12.22,1.26,0.48,-0.15,-0.07,-2.92,726.2,1080.87,0,2,1
9.22,2.99,-0.22,-0.95,-0.45,-3.65,669.6,983.71,0,2,1
3.19,4.43,1.1,-1.2,-0.83,-3.27,935.59,1214.65,0,2,1
4.65,4.95,1.93,-1.78,-1.06,-3.54,944.41,1256.52,0,2,1
-0.36,5.57,4.14,-1.16,-0.08,-3.42,938.82,1172.99,0,2,1
-4.46,7.15,5.16,-0.59,-0.22,-1.65,1218.97,1498.22,1,2,1
-4.74,6.74,3.8,0.75,0.66,2.39,889.55,939.97,0,3,1
-2.2,7.06,2.79,0.94,0.81,3.19,1025.81,1425.83,1,3,1
2.58,6.22,1.29,0.75,0.68,3.49,1686.27,1972.83,1,3,1
6.56,5.51,0.76,0.23,0.38,3.54,1321.36,1530.03,1,3,1
9.68,3.24,1.79,0.09,0.55,2.84,1042.76,1162.61,0,4,1
10.89,2.04,1.5,0.31,0.01,2.15,825.82,913.85,0,4,1
10.34,0.97,0.28,0.28,-0.31,1.6,564.11,642.06,0,4,1
11.98,0.3,0.05,-0.17,0.06,1.15,546.4,628.77,0,4,1
13.32,-0.29,1.19,-0.14,-0.34,0.61,463.75,568.42,0,4,1
9.37,0.15,0.75,0.03,0.12,-0.08,467.95,556.57,0,4,1
10.49,-0.1,0.64,-0.18,0.12,-0.04,433.11,529.37,0,4,1
9.89,-0.06,1.14,-0.12,0.09,-0.04,453.2,579.27,0,4,1
10.21,-0.06,1.01,-0.07,-0.04,-0.01,394.59,498.26,0,4,1
9.9,0.15,1.0,-0.1,0.01,0.02,468.51,556.21,0,4,1
10.25,0.07,1.11,-0.06,-0.01,0.01,399.51,490.32,0,4,1
9.96,0.08,1.04,-0.07,0.06,-0.03,441.71,560.99,0,4,1
10.61,0.03,1.18,-0.1,-0.04,0.01,462.24,536.0,0,4,1
11.55,0.04,1.53,-0.06,-0.2,-0.27,572.19,722.63,0,4,1
11.93,0.52,0.84,-0.05,0.1,-1.48,640.05,870.94,0,4,1
11.22,2.16,0.34,-0.15,-0.47,-1.95,844.19,1099.7,0,4,1
10.82,3.64,-0.35,-0.53,-0.19,-2.57,793.87,1040.37,0,4,1
8.35,4.66,-0.2,-0.75,-0.18,-3.44,869.75,1169.53,0,4,1
1.51,3.98,1.9,-1.02,-0.22,-3.69,977.57,1265.38,0,4,1
0.27,5.45,3.08,-1.12,-0.39,-3.86,1321.0,1587.55,1,4,1
-6.23,8.12,3.47,0.21,0.84,0.24,930.87,1050.67,0,5,1
-5.2,8.2,2.11,0.59,0.92,1.84,638.88,686.66,0,5,1
-4.34,7.14,1.77,0.72,0.98,3.04,473.94,520.81,0,5,1
0.69,6.63,0.82,0.96,0.6,3.77,1313.85,1804.04,1,5,1
4.89,4.86,-0.2,0.68,0.06,3.74,578.4,721.35,0,6,1
8.68,2.56,-0.14,0.13,0.19,3.58,620.78,742.01,0,6,1
12.1,0.86,-0.76,-0.04,0.19,2.8,533.08,601.75,0,6,1
13.6,-0.87,-0.49,-0.25,0.11,1.68,552.89,632.67,0,6,1
12.24,-0.69,-0.18,-0.21,0.42,0.17,351.17,406.49,0,6,1
9.98,-0.12,1.1,0.02,0.01,0.11,384.4,447.4,0,6,1
9.93,-0.45,-0.12,0.01,0.03,-0.02,478.14,614.38,0,6,1
9.67,-0.26,-0.06,-0.07,0.11,0.03,346.98,431.5,0,6,1
10.16,-0.45,0.49,-0.07,-0.03,0.05,303.61,360.53,0,6,1
10.06,-0.23,0.0,-0.07,0.07,-0.01,0.0,307.7,0,6,1
9.94,-0.33,0.62,-0.13,0.13,0.02,0.0,315.31,0,6,1
9.8,-0.19,0.6,-0.05,0.09,-0.02,311.02,403.13,0,6,1
9.91,-0.31,0.52,-0.06,0.12,0.03,405.08,540.22,0,6,1
10.36,-0.27,0.35,-0.12,0.07,-0.09,0.0,338.34,0,6,1
10.91,-0.17,0.46,-0.09,-0.07,-0.08,0.0,355.85,0,6,1
12.46,0.08,-0.48,-0.26,0.01,-0.7,564.02,888.21,0,6,1
10.66,0.59,2.26,-0.12,0.46,-2.02,493.22,690.24,0,6,1
9.38,3.0,0.34,-0.1,0.04,-2.18,1014.16,1424.54,1,6,1
-1.74,3.11,2.14,-0.39,0.64,-3.58,1056.68,1359.23,0,7,1
-3.59,5.89,4.47,-0.46,-0.65,-3.06,1041.36,1322.69,0,7,1
-7.03,8.87,3.24,-0.23,-0.95,-0.49,955.52,1199.48,0,7,1
-6.06,9.28,3.12,-0.02,0.06,0.2,762.69,942.13,0,7,1
-5.84,8.0,2.9,0.3,0.68,1.03,647.65,725.2,0,7,1
-4.42,7.25,2.08,0.59,0.88,2.57,481.46,546.58,0,7,1
0.56,7.71,1.4,1.02,0.69,3.28,1539.46,1948.5,1,7,1
4.15,8.18,0.04,0.73,0.31,3.24,1134.7,1404.63,1,7,1
8.44,5.92,-0.79,0.42,0.08,2.76,881.46,1059.18,0,8,1
10.1,3.6,-1.31,0.02,0.23,2.34,705.28,807.84,0,8,1
10.23,2.28,-0.98,-0.2,0.43,2.07,582.73,640.43,0,8,1
12.68,0.88,0.35,-0.59,0.47,1.13,431.12,489.52,0,8,1
11.76,0.87,1.56,-0.13,0.03,0.43,384.32,429.03,0,8,1
10.85,0.63,0.19,0.1,-0.01,-0.01,321.22,362.36,0,8,1
10.18,0.91,-0.14,-0.06,0.14,0.09,529.22,859.47,0,8,1
10.3,0.85,0.2,-0.18,0.2,-0.12,433.32,514.05,0,8,1
10.36,0.9,0.67,-0.15,0.18,0.03,0.0,318.78,0,8,1
10.27,0.9,0.7,-0.11,0.07,-0.01,0.0,0.0,0,8,1
10.28,0.87,0.88,-0.07,-0.06,-0.02,0.0,0.0,0,8,1
10.55,0.99,0.14,-0.15,0.01,-0.16,363.94,619.58,0,8,1
12.32,1.13,0.11,-0.27,-0.07,-0.73,315.96,420.42,0,8,1
10.72,2.14,0.61,-0.33,0.15,-1.52,324.31,400.54,0,8,1
10.06,3.35,0.6,-0.33,0.01,-1.9,702.79,994.32,0,8,1
10.68,5.12,0.0,-0.48,-0.13,-2.76,747.73,1041.14,0,8,1
6.17,5.42,0.79,-0.54,0.06,-3.31,806.62,1106.38,0,8,1
1.95,6.17,1.19,-0.42,0.19,-3.2,808.53,1108.1,0,8,1
-1.61,5.43,1.67,-1.13,-0.43,-3.48,899.71,1201.21,0,8,1
-6.39,5.61,4.63,-0.38,0.63,-1.56,1110.23,1391.88,0,8,1
-5.98,8.12,4.02,-0.15,0.36,-1.2,1177.01,1482.28,1,8,1
-4.2,7.24,2.36,0.53,0.86,2.15,939.75,979.13,0,9,1
-1.86,7.73,1.84,0.96,0.36,2.86,519.75,604.28,0,9,1
1.47,8.48,0.07,1.03,1.04,3.22,568.06,834.6,0,9,1
4.39,6.92,-0.33,0.44,0.39,3.32,445.41,547.59,0,9,1
9.15,5.38,-1.0,-0.05,0.17,3.04,580.07,740.19,0,9,1
11.98,3.7,-0.72,-0.25,0.17,2.39,445.59,529.7,0,9,1
10.13,1.99,0.42,-0.52,0.62,1.62,361.9,416.12,0,9,1
12.22,0.71,1.21,-0.18,-0.17,1.12,335.79,380.85,0,9,1
11.28,0.69,0.92,-0.01,0.19,0.19,0.0,329.14,0,9,1
10.08,0.7,0.56,0.04,-0.05,0.01,0.0,346.33,0,9,1
10.34,0.66,0.25,-0.09,0.02,-0.09,0.0,0.0,0,9,1
10.0,0.85,0.94,-0.2,0.02,-0.08,0.0,0.0,0,9,1
10.12,0.93,0.85,-0.09,0.06,-0.02,0.0,0.0,0,9,1
10.12,0.99,0.76,-0.13,0.08,-0.06,0.0,0.0,0,9,1
9.8,1.06,1.02,-0.1,0.11,-0.01,0.0,0.0,0,9,1
10.05,0.92,0.98,-0.06,0.05,-0.02,0.0,0.0,0,9,1
10.01,1.16,0.87,-0.04,-0.03,-0.04,0.0,0.0,0,9,1
10.11,1.07,0.97,-0.07,0.04,-0.02,0.0,335.05,0,9,1
11.83,1.14,0.93,-0.07,-0.05,-0.34,361.31,514.59,0,9,1
11.79,1.95,0.29,-0.14,0.01,-1.17,317.32,445.36,0,9,1
11.43,2.73,0.62,-0.24,0.56,-1.87,468.58,638.13,0,9,1
10.59,3.78,0.68,-0.29,-0.07,-2.53,542.11,797.09,0,9,1
8.63,5.12,0.5,-0.45,-0.22,-3.0,703.73,975.58,0,9,1
4.11,5.84,1.92,-0.52,-0.06,-3.33,824.64,1109.7,0,9,1
0.85,7.78,1.82,-0.47,-0.57,-2.93,722.3,880.65,0,9,1
-0.99,7.7,2.55,-0.74,-1.06,-2.79,1058.81,1302.17,0,9,1
-2.79,8.29,2.98,-0.28,-0.16,-1.86,1062.28,1293.38,0,9,1
-5.84,7.31,4.01,-0.11,-0.37,-1.11,1086.47,1326.19,0,9,1
-7.3,6.89,3.01,-0.01,0.25,0.04,1049.16,1291.31,0,9,1
-8.7,7.19,3.81,0.01,0.1,0.84,770.92,831.05,0,9,1
-5.2,6.86,2.94,0.28,0.51,1.89,564.18,611.41,0,9,1
-4.09,6.35,2.47,0.51,0.68,3.0,386.01,439.28,0,9,1
1.21,7.19,1.17,0.71,0.32,3.44,1216.84,1738.28,1,9,1
9.83,3.99,-0.23,-0.0,0.22,2.36,525.69,618.26,0,10,1
11.43,2.27,0.28,-0.02,0.02,1.8,485.88,571.99,0,10,1
10.74,1.16,0.24,-0.06,0.03,1.45,445.99,520.13,0,10,1
12.9,0.45,0.64,-0.21,0.42,0.57,463.51,588.44,0,10,1
9.21,0.99,0.89,-0.11,0.05,-0.05,427.69,500.25,0,10,1
9.85,0.72,0.82,-0.06,-0.07,0.05,396.2,452.15,0,10,1
9.6,0.8,0.65,-0.12,0.07,-0.06,410.57,485.2,0,10,1
9.99,0.91,0.9,-0.08,0.16,-0.0,377.67,478.74,0,10,1
9.89,1.08,0.85,-0.09,0.2,-0.02,378.96,462.09,0,10,1
9.94,0.87,0.92,-0.14,0.15,0.03,364.26,486.43,0,10,1
10.12,1.0,1.09,-0.12,0.1,0.03,358.58,459.45,0,10,1
10.01,0.95,1.17,-0.07,0.02,0.09,389.61,471.87,0,10,1
10.43,1.12,1.02,-0.11,0.01,0.07,368.93,466.96,0,10,1
11.66,1.25,1.31,-0.11,-0.18,0.06,490.04,644.73,0,10,1
12.02,1.07,0.77,-0.16,-0.06,-0.65,494.38,565.99,0,10,1
7.64,1.94,0.93,-0.22,-0.48,-0.7,455.33,599.83,0,10,1
12.29,2.0,0.53,-0.41,-0.17,-0.97,674.09,967.78,0,10,1
11.45,3.12,0.13,-0.31,-0.1,-1.72,825.38,1175.75,0,10,1
10.44,4.64,-0.34,-0.46,-0.33,-2.48,801.05,1103.73,0,10,1
5.95,5.15,0.57,-0.6,-0.45,-2.85,1142.87,1469.03,1,10,1
-3.86,8.43,1.66,-0.41,-0.52,-1.54,1303.49,1558.86,1,10,1
-4.52,9.11,2.35,0.02,0.11,0.42,945.05,1126.17,0,11,1
-6.82,8.15,3.04,0.18,0.55,1.35,770.26,885.6,0,11,1
-1.98,7.83,2.13,0.59,0.69,2.62,705.85,827.72,0,11,1
1.32,7.49,1.32,0.86,0.08,3.57,1129.98,1430.91,1,11,1
6.99,6.91,-0.65,0.87,0.32,3.26,885.01,1160.16,0,12,1
9.77,3.73,-1.85,0.65,0.02,2.82,1223.82,1441.61,1,12,1
10.03,1.42,-1.84,0.3,0.0,2.47,1110.63,1313.3,0,13,1
11.49,0.16,-1.56,0.23,0.09,2.04,803.38,918.37,0,13,1
12.31,-1.59,-1.86,0.09,-0.11,1.46,676.46,771.75,0,13,1
12.64,-1.84,-1.58,-0.01,0.21,0.31,864.85,1114.41,0,13,1
9.84,-1.75,-0.87,-0.08,0.34,-0.17,1441.76,1674.53,1,13,1
10.69,-1.09,-1.48,-0.14,0.12,0.02,1413.66,1606.66,1,13,1
10.81,-0.8,-1.12,-0.15,0.24,-0.12,1449.82,1605.23,1,13,1
9.3,-1.48,-0.15,-0.26,-0.04,0.06,1296.32,1453.15,1,13,1
10.86,-1.0,-1.26,-0.27,0.1,0.03,1014.31,1123.47,0,14,1
9.23,-1.35,-0.3,-0.16,0.17,-0.01,1377.11,1555.23,1,14,1
10.18,-1.15,-0.32,-0.03,0.13,-0.05,1361.18,1509.85,1,14,1
10.03,-0.67,-0.23,-0.03,0.15,-0.16,1299.72,1474.84,1,14,1
11.01,-0.45,-0.28,-0.08,0.06,-0.18,1427.49,1575.07,1,14,1
14.45,0.84,-1.05,0.04,-0.51,-1.75,1169.03,1332.41,0,15,1
11.65,1.61,-0.97,-0.28,-0.22,-3.13,1151.08,1316.49,0,15,1
5.27,3.53,-0.07,-0.54,-0.33,-3.19,1109.2,1307.94,0,15,1
8.01,8.11,-1.04,-0.61,-0.94,-2.95,1271.14,1429.36,1,15,1
2.9,5.68,-0.95,-1.49,-0.65,-4.07,1471.83,1680.62,1,15,1
-0.63,4.01,4.01,-1.15,-1.33,-3.1,1113.42,1322.79,0,16,1
-4.21,8.5,2.1,-0.4,-0.4,-0.85,1080.04,1266.11,0,16,1
-5.09,8.69,2.93,-0.08,0.28,-0.38,1049.13,1198.0,0,16,1
-3.73,8.29,2.53,0.01,-0.19,0.14,799.8,911.36,0,16,1
-5.01,8.57,1.89,0.42,0.91,1.26,639.71,697.67,0,16,1
-4.13,8.12,1.29,0.77,1.85,2.0,410.92,486.05,0,16,1
-2.32,7.26,0.01,0.85,1.0,3.14,654.08,883.94,0,16,1
5.96,8.48,-3.03,0.46,0.53,3.46,578.02,769.42,0,16,1
7.03,5.5,-1.45,0.03,0.17,3.1,595.67,710.39,0,16,1
8.6,2.34,-0.37,-0.14,0.37,2.97,530.79,689.38,0,16,1
11.05,0.64,-0.41,-0.03,0.39,2.62,398.59,480.07,0,16,1
11.91,-0.7,-1.44,-0.25,0.56,1.74,336.15,377.1,0,16,1
14.57,-1.54,-0.38,-0.34,0.19,0.99,324.16,380.76,0,16,1
9.82,-1.4,0.9,-0.1,0.04,-0.17,0.0,349.59,0,16,1
10.35,-1.42,0.03,0.08,0.01,0.0,326.73,419.53,0,16,1
9.69,-1.13,-0.31,-0.02,-0.02,-0.09,0.0,311.13,0,16,1
10.0,-1.05,-0.4,-0.16,0.09,-0.02,0.0,0.0,0,16,1
10.04,-1.12,0.13,-0.18,0.13,-0.01,0.0,0.0,0,16,1
10.02,-1.06,0.07,-0.09,0.06,-0.01,0.0,0.0,0,16,1
9.96,-0.9,-0.16,-0.08,0.05,-0.07,0.0,448.75,0,16,1
10.16,-0.84,-0.09,-0.12,0.08,-0.02,0.0,0.0,0,16,1
10.38,-0.99,0.21,-0.11,0.05,-0.05,0.0,0.0,0,16,1
10.15,-0.83,0.12,-0.06,0.02,-0.03,0.0,0.0,0,16,1
10.53,-0.83,0.08,-0.09,0.02,-0.04,0.0,333.54,0,16,1
12.38,-0.69,0.25,-0.11,0.31,-0.68,408.73,542.21,0,16,1
10.81,-0.09,1.19,0.1,0.35,-1.58,410.5,618.28,0,16,1
10.46,1.9,-0.52,-0.15,0.15,-2.14,583.05,852.84,0,16,1
10.22,3.05,-0.8,-0.61,0.14,-2.72,525.69,661.18,0,16,1
8.17,4.74,-0.44,-0.78,-0.6,-3.18,765.82,1057.13,0,16,1
7.02,7.29,-1.03,-1.15,-0.89,-3.17,957.04,1303.02,0,16,1
1.0,6.95,1.09,-1.46,-0.86,-2.81,1120.46,1422.98,1,16,1
-5.04,8.57,4.36,0.14,0.25,0.22,665.67,797.64,0,17,1
-5.37,7.32,3.65,0.59,1.05,1.47,620.72,731.05,0,17,1
-2.44,7.36,2.06,1.07,1.22,2.33,457.5,565.83,0,17,1
-0.84,7.05,0.85,1.09,0.32,3.04,451.59,533.0,0,17,1
4.34,7.48,-1.79,0.68,0.28,3.17,520.92,703.56,0,17,1
7.66,4.89,-1.8,0.13,0.23,2.93,479.09,564.54,0,17,1
9.36,3.11,-1.19,0.05,0.18,2.73,351.51,394.3,0,17,1
10.41,0.8,-1.12,-0.14,0.47,2.44,358.25,410.26,0,17,1
11.84,-1.01,-0.95,-0.22,0.61,1.98,0.0,345.19,0,17,1
15.35,-1.8,-0.35,-0.28,0.77,0.32,315.77,421.22,0,17,1
8.2,-0.42,0.86,0.01,0.09,-0.21,0.0,372.85,0,17,1
10.77,-0.8,-0.14,0.05,0.04,-0.07,0.0,0.0,0,17,1
10.03,-0.39,-0.04,-0.02,-0.07,-0.16,0.0,0.0,0,17,1
10.23,-0.44,0.12,-0.1,0.14,-0.03,0.0,0.0,0,17,1
10.18,-0.28,0.21,-0.1,0.08,-0.06,0.0,0.0,0,17,1
10.06,-0.2,0.23,-0.08,0.04,-0.01,0.0,0.0,0,17,1
10.33,-0.39,0.28,-0.06,0.01,-0.05,0.0,0.0,0,17,1
10.93,-0.19,0.31,-0.04,-0.03,-0.2,0.0,328.0,0,17,1
10.91,0.31,-0.02,-0.12,0.04,-0.46,0.0,455.45,0,17,1
10.81,0.71,0.19,-0.13,0.35,-0.74,310.26,418.5,0,17,1
10.59,1.44,0.21,-0.14,-0.01,-0.94,378.58,518.71,0,17,1
10.03,2.38,0.4,-0.22,0.15,-1.22,426.53,608.14,0,17,1
9.91,3.44,-0.13,-0.25,-0.09,-1.38,594.73,846.08,0,17,1
9.33,4.76,0.34,-0.35,-0.18,-1.75,467.33,637.64,0,17,1
8.19,5.66,0.35,-0.46,-0.09,-2.17,643.31,911.86,0,17,1
6.69,6.42,0.16,-0.56,-0.1,-2.64,595.83,778.73,0,17,1
1.87,8.07,1.5,-0.64,-0.42,-2.61,1009.34,1309.4,0,17,1
-0.06,7.27,1.54,-1.02,-0.7,-2.58,963.1,1272.27,0,17,1
-3.0,6.6,2.8,-0.81,-0.11,-2.32,949.62,1186.43,0,17,1
-4.93,8.02,3.68,-0.5,-0.43,-1.21,1104.57,1394.17,0,17,1
-4.36,8.56,3.64,-0.24,-0.18,-0.43,1153.39,1427.8,1,17,1
-5.26,7.59,2.94,0.69,1.6,2.11,862.01,925.7,0,18,1
-2.09,7.91,1.33,0.91,1.06,3.2,473.2,562.39,0,18,1
