ax,ay,az,gx,gy,gz,mav,rms,label_kontraksi,repetisi,id_orang
9.31,1.70,2.74,-0.09,0.08,0.04,0.00,391.40,0,0,1
9.38,1.89,2.93,-0.04,0.05,0.03,0.00,357.23,0,0,1
9.34,2.17,3.46,0.03,-0.06,0.12,0.00,302.38,0,0,1
9.13,2.06,3.13,0.08,-0.25,0.21,0.00,0.00,0,0,1
9.13,1.53,2.42,0.21,-0.31,0.22,0.00,0.00,0,0,1
9.88,1.36,1.47,0.30,-0.32,0.20,0.00,0.00,0,0,1
10.00,1.16,1.15,0.23,-0.22,0.20,0.00,0.00,0,0,1
10.13,0.98,0.72,0.08,-0.03,0.21,0.00,411.53,0,0,1
11.70,0.79,0.45,-0.16,0.04,0.07,512.10,708.17,0,0,1
11.29,0.84,1.58,-0.10,0.27,-0.46,595.59,766.91,0,0,1
13.81,1.33,-0.17,-0.39,0.40,-1.60,498.46,631.48,0,0,1
11.04,2.71,-0.28,-0.78,-0.28,-2.64,470.55,628.77,0,0,1
10.05,3.71,-0.05,-1.32,-0.99,-3.20,813.76,1051.31,0,0,1
6.66,5.09,0.96,-1.29,-0.90,-3.32,1172.50,1535.80,1,0,1
-3.52,8.64,5.53,-0.05,0.24,0.18,677.01,768.94,0,1,1
-4.85,8.30,5.51,0.38,1.05,0.96,571.44,624.50,0,1,1
-3.32,6.74,3.97,0.86,1.44,2.55,444.98,473.18,0,1,1
-0.05,7.06,2.15,0.79,0.69,3.84,316.58,378.22,0,1,1
8.57,5.78,0.77,0.44,0.85,3.89,336.10,424.97,0,1,1
10.23,2.73,2.68,0.19,0.79,2.99,432.89,641.81,0,1,1
10.47,1.78,1.87,0.32,-0.29,1.82,0.00,324.84,0,1,1
9.98,1.05,0.16,0.05,-0.82,1.63,0.00,334.90,0,1,1
14.19,0.21,0.50,0.03,-0.04,0.98,0.00,0.00,0,1,1
7.97,0.93,1.51,-0.07,0.66,-0.18,0.00,0.00,0,1,1
10.77,0.44,0.86,-0.15,0.26,0.04,0.00,0.00,0,1,1
10.06,0.63,0.98,-0.08,0.11,0.00,0.00,0.00,0,1,1
9.75,0.43,1.58,-0.11,0.15,-0.02,0.00,0.00,0,1,1
9.50,0.73,1.46,-0.11,-0.19,0.05,0.00,449.74,0,1,1
10.81,0.61,1.28,-0.09,-0.13,-0.02,397.91,702.27,0,1,1
12.29,0.79,1.41,-0.18,-0.41,-0.84,431.76,625.35,0,1,1
12.57,1.82,0.06,-0.36,0.54,-1.71,590.17,901.90,0,1,1
10.56,2.83,0.08,-0.65,-0.32,-2.35,649.07,923.97,0,1,1
8.85,3.94,0.88,-0.92,-0.53,-2.67,775.54,1062.14,0,1,1
4.80,5.62,2.04,-0.96,-0.77,-2.94,703.73,935.64,0,1,1
4.23,7.53,1.61,-1.24,-0.90,-3.08,902.94,1273.70,0,1,1
-1.33,3.59,4.78,-1.45,0.43,-3.37,1005.68,1351.84,0,1,1
-4.02,7.23,5.98,-0.47,0.51,-1.30,896.26,1162.56,0,1,1
-3.32,8.30,4.60,-0.07,0.31,-0.31,801.57,902.45,0,1,1
-3.25,8.30,4.72,0.14,0.43,0.29,670.07,829.54,0,1,1
-1.45,7.99,3.79,0.26,0.15,0.69,536.92,729.24,0,1,1
-3.80,5.26,4.21,0.81,0.46,3.34,395.50,443.80,0,1,1
1.86,5.92,1.77,0.98,0.10,4.22,430.95,560.72,0,1,1
5.68,4.62,1.27,0.65,0.46,4.27,341.12,469.63,0,1,1
11.65,1.46,1.15,0.42,0.71,3.34,459.93,653.41,0,1,1
11.94,0.65,0.62,0.21,0.30,2.06,302.62,334.60,0,1,1
12.50,0.08,1.36,0.12,-0.38,1.17,0.00,0.00,0,1,1
12.77,0.40,0.49,0.11,-0.02,-0.18,0.00,306.66,0,1,1
9.11,0.75,1.44,-0.09,-0.17,0.10,0.00,0.00,0,1,1
9.72,0.19,1.63,-0.10,0.04,0.02,0.00,0.00,0,1,1
9.97,0.45,0.92,-0.14,0.09,-0.07,0.00,0.00,0,1,1
10.16,0.44,1.53,-0.11,0.02,-0.03,0.00,0.00,0,1,1
9.95,0.74,1.18,-0.10,0.02,-0.02,0.00,380.22,0,1,1
10.23,0.50,1.46,-0.09,0.02,0.02,313.54,460.28,0,1,1
13.51,0.59,1.02,-0.14,-0.42,-0.72,432.03,635.92,0,1,1
11.45,1.35,1.20,-0.23,0.85,-1.67,387.32,476.78,0,1,1
13.57,3.21,0.14,-0.51,-0.36,-2.44,591.49,857.23,0,1,1
9.27,4.03,1.07,-0.87,-0.83,-3.23,642.42,873.98,0,1,1
4.69,5.95,1.23,-1.01,-0.80,-3.47,1100.50,1491.97,1,1,1
-6.61,6.16,7.02,-0.55,-0.30,-0.68,938.65,1185.23,0,2,1
-3.03,8.14,5.27,-0.04,0.20,0.23,586.91,713.10,0,2,1
-3.24,7.40,5.54,0.42,0.88,1.31,392.99,462.11,0,2,1
-2.75,6.42,4.31,0.86,1.06,2.97,323.41,383.12,0,2,1
1.57,7.06,2.37,0.77,0.09,3.65,312.70,362.46,0,2,1
6.52,5.98,1.42,0.85,-0.02,3.46,0.00,366.34,0,2,1
9.01,3.84,1.36,0.53,0.43,3.02,321.13,488.24,0,2,1
9.96,1.87,1.58,0.21,0.30,2.31,0.00,0.00,0,2,1
11.10,1.06,0.82,0.20,-0.34,1.89,0.00,0.00,0,2,1
16.66,0.28,0.24,-0.03,-0.18,0.62,0.00,363.92,0,2,1
6.93,1.25,1.85,-0.01,0.16,0.05,0.00,0.00,0,2,1
11.02,0.17,1.47,-0.14,0.27,0.03,0.00,0.00,0,2,1
9.60,0.57,1.43,-0.06,-0.05,0.05,0.00,0.00,0,2,1
9.92,0.53,1.52,-0.06,0.08,0.01,0.00,0.00,0,2,1
10.15,0.55,1.39,-0.08,0.09,0.04,0.00,0.00,0,2,1
9.95,0.50,1.46,-0.09,0.07,0.04,0.00,0.00,0,2,1
10.53,0.43,1.56,-0.09,0.03,-0.04,0.00,434.61,0,2,1
14.10,0.44,1.51,-0.14,-0.11,-0.96,429.62,672.09,0,2,1
9.88,2.04,0.88,-0.19,-0.44,-1.78,495.91,718.29,0,2,1
9.57,3.14,0.79,-0.56,-0.19,-2.05,545.94,733.68,0,2,1
9.38,4.90,0.83,-0.82,-0.37,-2.67,693.88,964.90,0,2,1
6.42,6.06,0.68,-0.97,-0.52,-3.34,731.85,1025.47,0,2,1
2.50,6.38,1.78,-1.24,-0.30,-3.45,825.10,1107.22,0,2,1
-0.92,7.84,2.84,-1.35,-0.68,-2.96,807.90,1139.18,0,2,1
-5.49,6.29,6.61,-0.85,-0.56,-1.53,1089.50,1399.03,0,2,1
-3.75,7.44,5.83,-0.17,0.00,-0.01,893.90,1146.74,0,2,1
-3.67,7.32,5.02,-0.02,-0.14,0.21,921.63,1123.96,0,2,1
-5.16,6.37,6.02,0.44,0.58,1.43,534.60,611.00,0,2,1
-3.42,5.63,4.96,0.89,1.41,3.28,396.40,460.44,0,2,1
1.33,6.09,2.96,0.94,0.54,4.15,370.22,428.47,0,2,1
7.38,4.77,1.88,0.64,0.16,3.95,354.85,453.84,0,2,1
12.75,2.68,0.76,0.40,0.08,2.94,477.21,689.01,0,2,1
10.52,1.87,1.59,0.21,-0.24,1.86,347.13,394.03,0,2,1
8.67,1.41,1.33,0.20,-0.15,1.45,0.00,0.00,0,2,1
13.00,0.35,1.41,0.06,0.15,1.13,0.00,0.00,0,2,1
8.76,0.73,1.88,-0.09,0.66,-0.26,0.00,0.00,0,2,1
11.49,0.25,1.18,-0.13,0.04,0.09,0.00,0.00,0,2,1
9.94,0.36,1.47,-0.04,-0.07,0.02,0.00,0.00,0,2,1
9.79,0.28,1.64,-0.10,0.16,-0.02,0.00,0.00,0,2,1
9.90,0.48,1.53,-0.08,0.20,-0.02,0.00,0.00,0,2,1
9.84,0.43,1.81,-0.09,0.17,0.01,0.00,0.00,0,2,1
9.86,0.41,2.01,-0.08,0.13,-0.03,318.18,597.80,0,2,1
11.33,0.53,2.08,-0.07,-0.06,-0.51,420.66,648.46,0,2,1
12.07,1.49,1.94,-0.13,-0.24,-1.38,708.43,1105.20,0,2,1
13.32,2.87,0.28,-0.35,-0.14,-2.24,800.02,1042.34,0,2,1
8.34,3.03,0.69,-0.85,-0.07,-3.43,743.02,981.60,0,2,1
5.51,4.11,2.09,-0.83,-0.71,-3.42,893.86,1152.25,0,2,1
3.77,5.11,0.73,-1.55,-1.02,-3.96,783.76,1021.15,0,2,1
0.37,6.51,3.05,-1.64,-1.03,-3.40,1034.98,1352.57,0,2,1
0.34,8.01,5.44,-0.57,-0.58,-1.10,1123.03,1398.06,0,2,1
-3.45,7.24,5.44,-0.11,0.37,-0.12,1153.75,1374.62,0,2,1
-5.73,7.08,5.69,0.34,1.13,1.06,667.57,758.42,0,2,1
-2.83,7.08,5.63,0.96,0.79,2.55,542.83,702.71,0,2,1
-0.78,7.01,2.93,0.97,0.09,3.38,445.93,544.80,0,2,1
4.31,6.88,1.72,0.68,1.26,3.65,423.11,490.88,0,2,1
10.16,5.16,0.11,0.37,-0.46,3.01,382.11,460.91,0,2,1
9.55,3.17,0.38,0.15,0.21,2.21,373.04,451.19,0,2,1
10.15,2.03,1.16,-0.00,-0.14,1.73,0.00,0.00,0,2,1
9.94,1.93,0.08,0.25,-0.68,1.79,0.00,0.00,0,2,1
12.40,-0.02,-0.95,-0.13,0.13,1.33,0.00,354.95,0,2,1
10.67,-0.19,0.74,-0.03,0.45,-0.04,0.00,0.00,0,2,1
10.90,-0.64,0.16,-0.04,-0.02,0.09,0.00,0.00,0,2,1
9.39,-0.64,0.97,-0.12,0.03,0.01,0.00,0.00,0,2,1
9.71,-0.35,0.64,-0.11,-0.01,0.03,0.00,0.00,0,2,1
10.24,-0.56,0.56,-0.00,0.09,0.00,0.00,0.00,0,2,1
9.96,-0.35,1.47,-0.00,0.00,-0.01,0.00,419.85,0,2,1
9.92,-0.17,0.99,-0.03,0.03,0.12,313.92,450.66,0,2,1
11.12,-0.39,0.84,0.01,-0.15,-0.07,337.66,418.45,0,2,1
13.17,0.05,-0.20,-0.08,-0.66,-0.92,619.44,1117.95,0,2,1
13.51,1.00,-0.94,-0.05,-0.35,-1.88,1167.28,1629.09,1,2,1
0.88,3.26,0.86,-1.70,-0.37,-3.95,1053.44,1375.02,0,3,1
-3.66,3.33,3.92,-1.38,-0.15,-3.28,1211.26,1475.60,1,3,1
-2.42,9.17,4.10,-0.44,-0.51,-0.47,796.82,955.20,0,4,1
-4.18,8.65,3.93,0.05,0.21,0.89,600.87,701.36,0,4,1
-3.81,8.06,4.66,0.48,1.38,2.22,435.73,513.80,0,4,1
-1.50,6.56,2.66,0.96,0.57,3.67,427.39,520.86,0,4,1
6.15,6.05,-0.10,0.90,0.78,3.94,505.77,636.57,0,4,1
10.40,3.35,-1.02,0.58,-0.09,3.59,737.36,1028.51,0,4,1
12.05,1.16,-0.75,0.21,-0.01,2.61,535.69,628.32,0,4,1
12.21,-0.13,-0.79,0.07,-0.52,1.77,394.09,436.05,0,4,1
12.52,-0.63,-0.60,-0.11,0.09,0.93,303.73,339.15,0,4,1
11.90,-0.73,1.04,-0.04,0.56,-0.21,0.00,0.00,0,4,1
10.99,-0.35,-0.90,0.05,-0.24,0.14,0.00,0.00,0,4,1
9.48,-0.87,1.06,-0.12,0.23,-0.05,0.00,0.00,0,4,1
10.38,-0.65,0.05,-0.08,0.09,0.01,0.00,0.00,0,4,1
9.94,-0.68,0.78,-0.13,0.08,-0.04,0.00,0.00,0,4,1
10.17,-0.61,0.37,-0.07,0.05,-0.03,0.00,0.00,0,4,1
10.10,-0.40,0.54,-0.10,0.19,0.01,0.00,0.00,0,4,1
10.05,-0.52,0.53,-0.06,0.10,-0.00,0.00,329.86,0,4,1
9.76,-0.44,0.49,-0.13,0.17,0.02,0.00,378.51,0,4,1
10.13,-0.74,1.38,-0.09,0.00,-0.02,0.00,366.62,0,4,1
12.73,-0.60,0.46,-0.04,-0.25,-0.79,536.58,763.29,0,4,1
13.39,-0.12,0.17,-0.12,0.09,-2.05,584.31,739.93,0,4,1
10.14,2.50,-1.26,-0.57,-0.31,-3.01,461.61,646.42,0,4,1
7.84,4.61,-0.06,-0.96,-0.37,-2.92,443.37,601.09,0,4,1
6.58,6.41,-0.10,-1.34,-0.73,-3.81,618.08,851.96,0,4,1
0.81,5.15,2.04,-1.31,-0.81,-3.52,875.58,1154.52,0,4,1
-5.92,4.15,4.60,-1.35,-0.70,-2.94,1103.65,1483.37,1,4,1
-2.74,6.70,3.98,0.67,0.47,2.15,576.70,677.79,0,5,1
-1.30,6.75,3.40,0.78,0.33,3.14,446.85,530.02,0,5,1
2.79,7.16,1.93,0.68,0.54,3.36,515.22,678.89,0,5,1
7.92,6.15,1.52,0.63,0.33,3.09,801.00,1074.17,0,5,1
9.98,4.64,0.67,0.43,0.22,2.53,574.85,775.68,0,5,1
11.07,2.69,-0.09,0.11,-0.41,1.68,453.10,502.08,0,5,1
9.30,1.77,0.93,-0.04,-0.04,1.39,348.03,385.09,0,5,1
11.30,0.94,0.42,0.20,-0.04,1.29,0.00,0.00,0,5,1
14.26,0.12,0.70,0.00,-0.15,0.17,0.00,0.00,0,5,1
7.23,0.85,1.22,-0.02,-0.07,0.11,0.00,0.00,0,5,1
9.41,0.39,0.60,-0.10,0.36,-0.06,0.00,324.48,0,5,1
10.37,0.54,0.53,-0.11,0.12,0.00,0.00,314.96,0,5,1
10.14,0.67,0.53,-0.10,0.03,-0.01,0.00,0.00,0,5,1
10.11,0.51,0.85,-0.09,0.06,-0.00,0.00,0.00,0,5,1
10.17,0.64,0.48,-0.05,0.17,-0.02,0.00,0.00,0,5,1
10.27,0.60,0.83,-0.04,-0.05,0.01,0.00,0.00,0,5,1
10.02,0.74,0.82,-0.07,0.03,-0.00,0.00,317.42,0,5,1
10.19,0.77,0.74,-0.14,0.07,0.02,0.00,0.00,0,5,1
9.99,0.74,0.76,-0.12,0.11,0.01,0.00,0.00,0,5,1
10.12,0.59,0.85,-0.11,0.04,0.03,0.00,0.00,0,5,1
9.86,0.84,0.80,-0.07,0.10,0.00,0.00,0.00,0,5,1
10.66,0.76,0.99,-0.05,0.03,-0.08,0.00,324.15,0,5,1
10.41,1.19,0.70,-0.05,-0.00,-0.19,0.00,368.66,0,5,1
12.00,1.27,0.69,-0.12,-0.18,-0.67,541.69,850.40,0,5,1
11.65,1.58,0.63,-0.22,0.07,-1.57,603.85,802.71,0,5,1
9.47,3.41,0.29,-0.66,-0.24,-2.37,497.73,659.12,0,5,1
8.25,4.50,1.14,-1.04,-0.38,-2.64,460.39,560.46,0,5,1
9.35,6.30,0.85,-1.13,-0.59,-3.59,982.50,1331.74,0,5,1
1.21,5.17,1.57,-1.53,-0.88,-3.57,1029.80,1356.81,0,5,1
-0.04,4.00,4.83,-1.47,-0.95,-3.59,812.89,1059.92,0,5,1
-5.50,7.16,4.34,-0.58,-0.39,-1.46,1308.55,1670.46,1,5,1
-7.94,6.95,1.02,1.00,1.92,1.96,836.92,905.04,0,6,1
-4.26,6.11,-0.29,0.91,0.61,3.27,616.81,656.91,0,6,1
0.79,6.64,-0.73,0.92,0.13,3.81,450.64,497.33,0,6,1
5.03,5.00,-0.86,0.79,0.23,4.05,319.24,369.76,0,6,1
10.02,2.24,-1.95,0.29,0.61,3.55,330.09,405.94,0,6,1
14.45,1.00,-2.89,-0.22,0.54,2.14,356.67,445.21,0,6,1
12.28,1.72,-1.85,-0.49,0.32,0.75,321.53,415.49,0,6,1
11.11,1.50,0.71,-0.29,0.13,0.32,0.00,371.97,0,6,1
10.25,1.10,-1.92,-0.21,0.12,0.64,478.93,661.33,0,6,1
10.31,-0.19,0.39,-0.28,0.41,-0.02,0.00,310.16,0,6,1
11.07,0.40,-0.88,-0.18,-0.06,0.09,0.00,0.00,0,6,1
10.07,0.31,-0.35,-0.08,-0.06,0.02,0.00,0.00,0,6,1
10.57,0.50,-0.38,-0.10,0.06,-0.00,0.00,0.00,0,6,1
10.11,0.52,-0.20,-0.09,0.07,-0.00,0.00,0.00,0,6,1
10.02,0.65,-0.07,-0.09,0.14,-0.01,0.00,0.00,0,6,1
10.30,0.64,-0.26,-0.11,0.14,-0.01,0.00,0.00,0,6,1
10.30,0.76,-0.31,-0.10,0.06,0.01,0.00,0.00,0,6,1
10.23,0.63,-0.16,-0.05,-0.04,0.06,0.00,307.64,0,6,1
9.90,0.54,0.10,-0.10,0.18,0.06,0.00,0.00,0,6,1
10.85,0.40,-0.06,-0.05,0.04,-0.01,0.00,513.00,0,6,1
11.12,0.36,0.34,0.04,-0.30,-0.37,370.12,522.56,0,6,1
12.10,1.19,-1.19,-0.06,-0.31,-1.00,447.60,582.16,0,6,1
12.70,2.46,-1.16,-0.50,-0.18,-1.83,485.10,594.38,0,6,1
12.50,3.97,-2.94,-1.13,-0.44,-3.07,784.60,1170.79,0,6,1
7.57,3.76,-0.85,-1.47,-0.13,-3.42,1050.66,1391.12,0,6,1
-0.20,3.51,1.52,-1.80,0.22,-3.35,925.13,1231.08,0,6,1
0.54,7.13,3.95,-1.41,-0.16,-2.77,581.65,747.64,0,6,1
-2.34,6.77,4.39,-1.22,-0.83,-2.32,1341.88,1688.65,1,6,1
-4.17,7.48,5.33,1.19,1.57,1.66,767.26,849.45,0,7,1
-3.29,7.38,2.46,1.49,1.32,2.47,562.08,641.81,0,7,1
-0.16,6.06,0.02,1.53,0.80,3.55,424.94,473.76,0,7,1
5.60,5.07,-1.82,0.94,0.55,3.88,461.40,576.03,0,7,1
10.00,2.27,-1.94,0.32,0.06,3.66,377.62,459.11,0,7,1
13.78,0.17,-0.89,0.14,0.33,2.58,367.56,426.92,0,7,1
11.16,-0.10,-1.57,0.00,0.37,1.45,0.00,304.67,0,7,1
11.95,-0.33,-0.74,-0.28,0.63,0.72,0.00,0.00,0,7,1
11.51,-0.46,-1.50,0.09,0.03,0.05,0.00,0.00,0,7,1
11.73,-0.67,-1.06,-0.27,0.01,-0.10,0.00,0.00,0,7,1
10.08,-0.41,-0.30,-0.17,-0.08,-0.03,0.00,0.00,0,7,1
10.21,-0.47,0.07,-0.16,0.15,-0.06,0.00,0.00,0,7,1
10.40,-0.40,-0.08,-0.11,0.06,-0.03,0.00,0.00,0,7,1
10.16,-0.30,0.08,-0.05,0.02,-0.02,0.00,0.00,0,7,1
10.22,-0.37,0.19,-0.03,0.08,-0.00,0.00,0.00,0,7,1
10.18,-0.30,0.17,-0.06,0.06,-0.00,0.00,0.00,0,7,1
10.08,-0.26,0.25,-0.07,0.03,-0.00,0.00,0.00,0,7,1
10.14,-0.24,0.12,-0.07,0.03,0.02,0.00,0.00,0,7,1
10.16,-0.25,-0.06,-0.07,0.04,0.02,0.00,0.00,0,7,1
10.24,-0.31,0.19,-0.10,0.05,0.01,0.00,0.00,0,7,1
10.73,-0.20,0.04,-0.09,0.02,-0.05,0.00,402.76,0,7,1
12.74,0.05,0.10,-0.00,-0.55,-0.53,336.21,542.44,0,7,1
12.41,0.69,-0.97,-0.12,-0.08,-1.46,437.43,622.32,0,7,1
11.07,1.97,-1.08,-0.61,-0.32,-1.91,443.16,617.45,0,7,1
11.41,3.18,-1.56,-1.02,-0.21,-2.58,516.12,747.25,0,7,1
8.01,3.25,-0.00,-1.22,-0.05,-3.23,644.67,936.82,0,7,1
3.37,5.86,-0.12,-1.32,-0.36,-3.20,594.46,782.05,0,7,1
1.21,6.68,1.91,-2.07,-0.78,-3.36,1039.83,1415.79,1,7,1
-6.36,8.04,6.01,0.40,0.69,0.63,594.15,686.75,0,8,1
-3.01,7.29,4.51,1.07,0.99,1.96,426.70,480.85,0,8,1
-0.68,6.85,2.49,1.49,0.37,3.00,322.16,358.62,0,8,1
4.01,6.55,-0.40,1.28,0.66,3.20,301.96,358.61,0,8,1
6.78,4.87,-0.98,0.79,0.32,3.16,407.70,517.73,0,8,1
10.09,3.28,-1.31,0.55,0.18,2.90,351.16,428.99,0,8,1
11.96,1.38,-1.49,0.37,0.17,2.22,0.00,300.53,0,8,1
12.30,0.28,-2.20,0.13,0.18,1.48,0.00,309.94,0,8,1
11.98,-0.48,-1.29,-0.01,0.45,0.89,317.69,475.65,0,8,1
12.15,-0.99,-0.62,0.04,0.33,0.24,0.00,326.36,0,8,1
10.01,-0.82,-0.52,0.00,0.21,0.13,0.00,403.43,0,8,1
10.09,-1.15,-0.18,-0.13,0.14,-0.04,0.00,0.00,0,8,1
10.09,-0.91,-0.24,-0.08,-0.02,0.08,0.00,0.00,0,8,1
10.39,-1.13,-0.36,-0.10,-0.10,0.04,0.00,0.00,0,8,1
9.85,-1.10,-0.34,-0.17,-0.05,0.10,0.00,0.00,0,8,1
10.30,-1.18,-0.62,-0.17,-0.03,0.06,0.00,0.00,0,8,1
9.87,-1.23,-0.52,-0.16,-0.03,0.10,0.00,0.00,0,8,1
10.13,-1.29,-0.36,-0.12,-0.20,0.14,0.00,0.00,0,8,1
10.41,-1.15,-1.44,-0.16,-0.28,0.21,0.00,324.89,0,8,1
9.92,-1.60,-1.37,-0.20,-0.24,0.27,0.00,0.00,0,8,1
10.02,-1.94,-1.92,-0.14,-0.21,0.17,0.00,0.00,0,8,1
9.95,-2.22,-1.78,-0.06,-0.11,0.05,0.00,0.00,0,8,1
10.04,-2.01,-1.88,-0.03,-0.05,0.00,0.00,0.00,0,8,1
10.28,-1.94,-1.97,-0.08,-0.09,0.03,0.00,0.00,0,8,1
11.05,-1.95,-1.94,-0.08,-0.35,-0.19,0.00,425.06,0,8,1
11.02,-1.42,-2.49,-0.19,-0.28,-0.80,459.56,694.85,0,8,1
12.45,-0.51,-3.15,-0.34,-0.35,-1.45,460.68,602.43,0,8,1
11.03,0.97,-4.08,-0.71,-0.10,-2.13,472.92,644.67,0,8,1
10.84,2.17,-3.51,-1.29,-0.05,-2.76,841.06,1264.83,0,8,1
8.56,2.59,-2.57,-1.24,0.26,-3.16,935.39,1184.26,0,8,1
3.86,5.23,-1.88,-1.05,0.04,-2.78,1081.20,1442.45,1,8,1
-0.47,9.71,1.05,0.55,0.56,1.05,737.86,810.63,0,9,1
-0.22,7.68,0.57,1.06,0.45,2.23,574.34,619.45,0,9,1
3.83,5.13,-2.19,1.45,0.36,3.50,442.46,536.27,0,9,1
9.07,2.80,-3.89,1.25,0.02,3.77,417.06,521.65,0,9,1
12.60,0.11,-4.05,0.80,0.55,2.87,438.80,590.45,0,9,1
11.52,-1.15,-3.91,0.41,0.27,1.93,0.00,336.27,0,9,1
12.00,-2.62,-3.31,-0.07,0.29,1.22,0.00,357.30,0,9,1
11.47,-2.30,-2.86,-0.00,0.22,-0.26,0.00,0.00,0,9,1
10.61,-2.24,-2.74,-0.17,0.13,0.07,0.00,0.00,0,9,1
9.69,-2.30,-2.21,-0.18,0.28,-0.10,0.00,0.00,0,9,1
10.23,-2.21,-2.17,-0.21,0.27,-0.03,0.00,0.00,0,9,1
10.02,-2.04,-1.89,-0.17,0.23,-0.07,0.00,0.00,0,9,1
9.94,-2.10,-1.82,-0.10,0.11,-0.01,0.00,0.00,0,9,1
9.67,-1.86,-1.57,-0.08,0.08,-0.00,0.00,0.00,0,9,1
9.94,-1.98,-1.69,-0.09,0.08,-0.01,0.00,0.00,0,9,1
9.87,-1.78,-1.72,-0.09,0.08,-0.03,0.00,0.00,0,9,1
10.11,-1.81,-1.82,-0.12,0.15,-0.04,0.00,0.00,0,9,1
10.03,-1.75,-1.60,-0.09,0.07,-0.02,0.00,0.00,0,9,1
10.07,-1.65,-1.69,-0.08,0.02,-0.02,0.00,0.00,0,9,1
11.19,-1.65,-1.47,-0.08,0.06,-0.15,355.62,627.55,0,9,1
12.39,-1.25,-1.64,-0.10,-0.26,-0.98,0.00,405.33,0,9,1
11.18,-0.20,-1.75,-0.31,0.21,-1.57,338.64,441.45,0,9,1
11.09,1.47,-2.87,-0.71,-0.40,-2.16,335.14,407.12,0,9,1
10.50,3.19,-2.24,-1.01,-0.43,-2.51,446.52,612.13,0,9,1
6.72,5.35,-1.43,-1.01,-0.34,-2.88,522.55,743.78,0,9,1
4.34,6.46,-1.29,-1.45,-0.76,-2.56,748.41,1105.74,0,9,1
2.14,7.79,0.91,-1.04,-0.34,-1.82,723.47,1033.78,0,9,1
-0.39,6.72,2.83,-1.08,-0.28,-1.79,983.29,1334.78,0,9,1
-1.97,8.98,3.02,-0.47,-0.13,-0.73,976.02,1276.95,0,9,1
-2.76,9.22,3.24,-0.24,0.20,-0.16,884.28,1166.89,0,9,1
-2.09,9.47,2.86,-0.03,0.50,0.15,831.28,1021.23,0,9,1
-2.70,8.70,3.26,0.11,0.43,0.42,516.60,553.45,0,9,1
-2.12,7.61,3.34,1.17,1.65,2.22,380.61,442.51,0,9,1
0.03,6.40,1.77,1.53,0.36,3.27,381.89,512.16,0,9,1
5.36,6.22,-1.39,1.29,0.68,3.50,366.33,493.10,0,9,1
10.64,3.95,-3.26,0.54,0.36,3.22,463.85,645.73,0,9,1
13.49,1.42,-1.87,-0.05,0.71,1.71,434.55,612.14,0,9,1
9.51,1.15,-0.23,0.15,0.07,1.24,0.00,346.07,0,9,1
9.62,0.26,-0.96,0.28,0.09,1.30,0.00,0.00,0,9,1
11.75,-1.19,-1.34,0.01,0.03,1.22,0.00,0.00,0,9,1
13.17,-1.54,-0.98,-0.27,0.30,-0.01,0.00,0.00,0,9,1
8.40,-0.67,-0.23,-0.07,-0.09,0.07,0.00,0.00,0,9,1
10.43,-1.28,-0.45,-0.19,0.35,-0.04,0.00,0.00,0,9,1
9.97,-1.07,-0.50,-0.05,0.00,0.02,0.00,0.00,0,9,1
10.15,-0.98,-0.20,-0.07,0.11,-0.01,0.00,0.00,0,9,1
10.35,-1.08,-0.20,-0.08,0.06,0.00,0.00,0.00,0,9,1
10.16,-1.07,-0.25,-0.06,0.09,-0.00,0.00,0.00,0,9,1
10.28,-1.10,-0.11,-0.07,0.03,0.02,0.00,0.00,0,9,1
10.77,-1.09,0.24,-0.05,0.01,-0.24,314.01,461.78,0,9,1
11.70,-0.31,-0.97,0.01,-0.16,-0.92,413.31,736.09,0,9,1
11.96,0.29,-1.08,-0.29,-0.11,-1.28,332.60,483.60,0,9,1
13.56,1.45,-1.75,-0.53,-0.40,-2.59,452.21,599.13,0,9,1
7.13,3.35,-0.96,-0.69,-0.75,-2.72,453.76,659.13,0,9,1
6.30,6.30,-1.70,-0.87,-1.37,-2.37,594.58,844.71,0,9,1
4.60,7.10,-0.84,-1.63,-0.83,-2.96,798.93,1092.35,0,9,1
3.29,9.04,-0.66,-1.37,-0.66,-2.44,1085.48,1428.42,1,9,1
-1.87,9.00,3.98,-0.04,0.28,0.04,826.55,1005.52,0,10,1
-2.89,8.28,3.90,0.39,0.56,0.70,578.12,622.33,0,10,1
-1.57,8.25,2.80,0.88,1.09,1.51,426.67,497.05,0,10,1
-0.39,7.18,1.16,1.14,0.54,2.60,349.84,425.98,0,10,1
3.03,6.97,0.09,1.05,0.58,3.07,0.00,345.63,0,10,1
6.86,6.10,-1.05,0.78,0.40,3.19,334.67,492.70,0,10,1
12.11,3.66,-1.82,0.28,0.57,2.47,422.28,587.80,0,10,1
11.77,2.20,-1.22,0.07,0.16,1.56,0.00,0.00,0,10,1
10.95,1.54,-0.36,-0.07,0.03,1.21,0.00,0.00,0,10,1
10.01,0.72,-0.51,0.08,0.23,0.94,0.00,0.00,0,10,1
11.61,-0.11,-1.24,-0.11,-0.02,0.78,0.00,0.00,0,10,1
11.96,-0.49,0.37,-0.06,0.12,-0.05,0.00,0.00,0,10,1
9.21,0.09,-0.23,-0.09,0.10,-0.07,0.00,0.00,0,10,1
10.47,-0.27,0.21,-0.08,-0.05,0.10,0.00,0.00,0,10,1
10.07,-0.34,-0.55,-0.10,-0.15,0.07,0.00,0.00,0,10,1
10.39,-0.23,-0.07,-0.06,0.02,0.02,0.00,0.00,0,10,1
10.35,-0.17,-0.45,-0.03,0.13,0.05,0.00,0.00,0,10,1
10.49,-0.18,-0.29,-0.10,0.09,0.03,0.00,0.00,0,10,1
10.48,-0.24,-0.02,-0.11,-0.02,-0.09,0.00,0.00,0,10,1
10.24,-0.11,-0.04,-0.08,-0.03,-0.06,0.00,0.00,0,10,1
10.33,0.19,-0.29,-0.05,-0.04,-0.31,0.00,326.14,0,10,1
12.03,0.44,-0.80,-0.15,-0.41,-0.52,404.44,583.19,0,10,1
12.16,0.98,-0.93,-0.32,-0.07,-1.30,383.74,516.24,0,10,1
11.00,2.63,-1.68,-0.52,-0.40,-1.86,420.20,683.37,0,10,1
10.86,3.73,-1.73,-0.99,-0.64,-2.51,479.45,685.80,0,10,1
6.68,4.83,-0.71,-1.15,-0.62,-2.80,484.52,689.52,0,10,1
3.71,6.14,-0.11,-1.17,-0.57,-2.43,641.74,918.84,0,10,1
2.93,8.60,0.23,-1.23,-0.34,-2.24,802.92,1121.43,0,10,1
-1.90,7.09,3.41,-1.12,-0.21,-1.81,530.48,718.79,0,10,1
-1.63,8.70,3.60,-0.63,-0.26,-0.78,849.25,1221.96,0,10,1
-2.50,8.69,4.12,-0.42,0.20,-0.67,1027.41,1301.49,0,10,1
-2.80,8.19,4.12,-0.11,0.03,0.09,737.46,897.33,0,10,1
-3.05,8.14,4.48,0.36,0.54,1.03,538.27,585.02,0,10,1
-2.40,7.31,3.92,1.02,1.35,2.11,423.12,466.51,0,10,1
0.84,7.59,2.24,1.34,0.52,2.85,332.51,402.48,0,10,1
4.26,6.18,-0.13,1.16,0.96,3.04,0.00,309.89,0,10,1
7.47,4.73,-0.74,0.65,0.23,3.05,0.00,390.06,0,10,1
10.78,3.33,-1.04,0.38,0.67,2.33,0.00,317.84,0,10,1
11.23,2.29,-0.74,0.18,0.19,1.42,0.00,0.00,0,10,1
10.22,1.66,-0.51,0.25,0.02,1.13,0.00,305.72,0,10,1
10.64,0.12,-0.89,0.01,-0.29,1.07,0.00,0.00,0,10,1
11.56,-0.70,-0.21,-0.06,0.10,0.71,0.00,0.00,0,10,1
11.83,-0.34,-0.65,-0.04,-0.05,0.02,0.00,337.24,0,10,1
9.47,-0.15,-0.22,-0.06,0.11,-0.10,0.00,0.00,0,10,1
10.28,-0.40,-0.30,-0.09,0.17,-0.03,0.00,0.00,0,10,1
10.07,-0.22,0.01,-0.08,0.23,-0.08,0.00,0.00,0,10,1
9.83,-0.29,0.31,-0.03,0.07,0.00,0.00,0.00,0,10,1
10.07,-0.51,0.27,-0.06,0.13,0.02,0.00,0.00,0,10,1
10.32,-0.22,0.29,-0.05,0.15,-0.00,0.00,0.00,0,10,1
10.74,-0.16,0.49,-0.07,-0.05,-0.00,0.00,0.00,0,10,1
11.64,-0.17,0.32,-0.01,-0.34,-0.31,0.00,375.89,0,10,1
12.52,0.15,-0.50,-0.27,0.20,-1.17,374.29,526.94,0,10,1
13.15,1.39,-1.19,-0.60,0.07,-2.45,358.73,486.37,0,10,1
8.16,2.09,-0.50,-1.01,0.67,-3.02,663.32,945.88,0,10,1
7.11,5.73,-0.88,-1.23,-0.46,-3.16,1009.75,1341.31,0,10,1
2.74,3.93,2.51,-1.89,-0.76,-3.40,1156.57,1525.86,1,10,1
-3.75,7.63,6.84,0.45,0.88,0.49,804.14,847.45,0,11,1
-1.74,8.29,4.17,1.13,1.07,1.62,522.85,579.84,0,11,1
0.53,7.61,1.71,1.41,0.63,2.26,408.16,443.73,0,11,1
3.14,7.36,0.01,1.14,0.97,2.70,313.45,362.70,0,11,1
6.66,6.40,-1.20,0.58,0.47,3.08,0.00,369.34,0,11,1
11.26,4.27,-1.49,0.12,0.41,2.64,333.13,450.25,0,11,1
10.03,1.93,-0.17,-0.18,0.17,1.81,0.00,305.23,0,11,1
11.04,0.85,-0.33,-0.32,0.19,1.28,0.00,0.00,0,11,1
10.59,0.28,0.50,-0.03,-0.30,1.12,0.00,320.47,0,11,1
11.38,-0.38,-0.19,0.12,0.15,0.74,0.00,360.35,0,11,1
10.69,-0.47,-0.11,-0.02,0.36,0.29,0.00,374.40,0,11,1
10.53,-0.60,0.23,-0.12,0.08,-0.12,0.00,0.00,0,11,1
10.24,-0.48,0.39,-0.11,0.03,-0.03,0.00,0.00,0,11,1
9.91,-0.58,0.45,-0.13,0.12,-0.10,0.00,0.00,0,11,1
10.08,-0.49,0.40,-0.08,0.06,-0.04,0.00,0.00,0,11,1
10.13,-0.33,0.34,-0.09,0.04,0.01,0.00,0.00,0,11,1
10.18,-0.47,0.41,-0.08,0.05,0.00,0.00,0.00,0,11,1
10.22,-0.38,0.24,-0.10,0.00,0.00,0.00,0.00,0,11,1
10.36,-0.37,0.35,-0.11,-0.01,-0.02,0.00,370.82,0,11,1
11.19,-0.39,0.62,-0.10,-0.16,-0.39,0.00,304.19,0,11,1
11.82,0.28,-0.49,-0.21,0.30,-1.03,0.00,367.84,0,11,1
11.86,1.55,-0.50,-0.38,0.07,-1.61,0.00,0.00,0,11,1
12.21,2.81,-1.28,-0.70,-0.34,-2.38,495.18,704.44,0,11,1
10.71,3.94,-1.56,-1.19,-0.55,-3.06,867.09,1174.92,0,11,1
4.61,4.56,1.16,-1.46,-0.54,-3.01,1064.79,1454.20,1,11,1
-0.65,9.40,4.75,-0.39,-0.43,-0.38,1069.14,1383.13,0,12,1
-2.52,8.17,5.24,0.21,-0.09,0.65,909.59,1098.89,0,12,1
-4.78,8.14,5.32,0.57,0.92,0.80,586.09,647.90,0,12,1
0.51,8.15,3.55,1.19,1.34,1.37,489.38,601.90,0,12,1
-0.18,8.09,1.25,1.53,0.89,2.24,302.08,347.69,0,12,1
2.57,7.54,-0.64,1.05,1.05,2.75,326.96,393.93,0,12,1
5.65,6.19,-1.22,0.64,0.14,3.22,346.47,499.16,0,12,1
10.24,3.87,-1.36,0.17,0.33,2.95,354.87,520.78,0,12,1
10.64,1.09,-0.06,-0.05,0.42,2.33,0.00,351.57,0,12,1
11.33,0.04,-0.44,-0.15,0.35,1.63,0.00,0.00,0,12,1
11.85,-0.67,0.16,-0.01,0.05,1.08,0.00,0.00,0,12,1
11.83,-0.99,0.14,0.02,0.19,0.18,0.00,303.46,0,12,1
9.45,-0.42,0.44,-0.10,0.21,-0.06,0.00,0.00,0,12,1
10.19,-0.58,0.51,-0.07,0.06,-0.05,0.00,0.00,0,12,1
9.94,-0.53,0.34,-0.11,0.04,-0.02,0.00,0.00,0,12,1
9.95,-0.55,0.40,-0.12,0.04,-0.01,0.00,0.00,0,12,1
10.11,-0.54,0.38,-0.10,0.05,-0.00,0.00,0.00,0,12,1
10.16,-0.50,0.43,-0.06,-0.03,0.01,0.00,0.00,0,12,1
10.07,-0.45,0.47,-0.09,-0.03,-0.00,0.00,0.00,0,12,1
10.98,-0.59,0.33,-0.11,-0.16,-0.14,0.00,0.00,0,12,1
10.91,-0.17,0.07,-0.13,-0.08,-0.46,0.00,0.00,0,12,1
11.89,0.56,0.13,-0.21,-0.03,-1.03,301.81,401.51,0,12,1
11.18,1.43,-0.25,-0.31,0.19,-1.44,426.08,581.24,0,12,1
12.15,2.62,-1.19,-0.63,-0.34,-2.03,320.22,384.25,0,12,1
10.20,4.35,-0.37,-0.95,-0.42,-2.56,454.27,668.80,0,12,1
7.16,5.81,0.09,-1.03,-0.70,-2.96,634.23,893.09,0,12,1
3.20,5.92,1.81,-1.37,-0.58,-2.88,750.74,1035.98,0,12,1
0.15,6.64,2.51,-1.28,-0.29,-2.29,675.95,848.09,0,12,1
-1.12,5.98,3.91,-1.26,-0.37,-1.98,1016.71,1327.97,0,12,1
-2.02,8.02,5.75,-0.56,-0.20,-0.77,1234.96,1532.05,1,12,1
-2.02,7.09,5.20,1.12,1.14,1.91,878.38,933.93,0,13,1
0.13,7.66,2.76,1.60,0.94,2.53,571.07,607.28,0,13,1
3.13,7.57,0.08,1.16,0.97,2.81,381.77,426.06,0,13,1
6.22,6.22,-0.86,0.72,-0.16,2.94,315.76,378.42,0,13,1
9.25,4.78,-0.97,0.28,0.22,2.42,318.19,407.50,0,13,1
11.57,3.37,-0.40,0.14,0.33,1.67,0.00,305.19,0,13,1
10.43,2.82,-0.22,0.05,0.09,1.11,0.00,0.00,0,13,1
9.57,1.98,-0.13,0.07,0.20,0.96,0.00,0.00,0,13,1
10.77,0.92,-0.07,0.01,0.07,1.01,0.00,0.00,0,13,1
12.01,0.49,-0.19,-0.15,0.38,0.40,0.00,0.00,0,13,1
10.87,0.49,0.57,-0.12,0.11,0.01,0.00,0.00,0,13,1
10.13,0.43,0.10,-0.03,0.03,0.03,0.00,0.00,0,13,1
10.09,0.20,0.49,-0.11,0.08,0.02,0.00,0.00,0,13,1
10.02,0.30,0.25,-0.06,0.11,-0.01,0.00,0.00,0,13,1
10.13,0.46,0.48,-0.07,0.04,0.04,0.00,0.00,0,13,1
10.14,0.29,0.36,-0.06,0.08,-0.00,0.00,0.00,0,13,1
10.72,0.24,0.53,-0.07,0.01,-0.08,0.00,0.00,0,13,1
10.46,0.59,0.59,0.01,-0.05,-0.24,335.28,520.38,0,13,1
11.22,0.89,0.11,-0.03,-0.15,-0.65,0.00,367.67,0,13,1
11.06,1.66,-0.58,-0.37,0.29,-1.27,0.00,0.00,0,13,1
10.50,2.76,-0.11,-0.52,-0.18,-1.55,0.00,349.88,0,13,1
10.12,4.19,-0.57,-0.70,-0.29,-1.95,400.63,516.30,0,13,1
9.41,5.42,-0.40,-1.04,-0.75,-2.33,477.65,640.12,0,13,1
6.04,6.36,0.26,-1.26,-0.61,-2.73,594.80,820.09,0,13,1
3.21,8.37,0.84,-1.41,-0.70,-2.67,832.94,1165.95,0,13,1
-0.91,5.69,3.35,-1.50,-0.32,-2.44,885.92,1249.62,0,13,1
-1.08,7.95,3.98,-0.90,-0.20,-1.48,1036.55,1400.86,1,13,1
-2.66,8.03,4.81,0.69,1.53,1.28,680.09,720.51,0,14,1
-1.41,8.17,3.58,1.00,1.44,2.00,442.64,477.42,0,14,1
0.31,7.39,2.45,1.23,0.86,2.60,338.91,374.54,0,14,1
4.29,7.62,-0.16,1.06,0.82,2.89,306.30,456.91,0,14,1
7.82,6.00,-0.71,0.56,0.09,2.92,344.95,493.95,0,14,1
10.60,3.84,-0.38,0.22,0.30,2.33,325.99,418.90,0,14,1
10.31,2.61,-0.05,-0.02,0.33,1.68,0.00,0.00,0,14,1
9.96,1.63,0.96,0.05,0.10,1.47,0.00,0.00,0,14,1
10.63,0.47,0.38,0.19,0.05,1.49,0.00,0.00,0,14,1
14.44,-0.50,-0.32,-0.06,0.37,0.42,0.00,0.00,0,14,1
9.21,0.09,1.65,-0.12,0.37,-0.22,0.00,0.00,0,14,1
10.36,-0.11,0.45,-0.03,-0.10,0.11,0.00,0.00,0,14,1
9.71,-0.15,1.29,-0.16,0.19,-0.07,0.00,0.00,0,14,1
9.99,-0.10,1.18,-0.05,0.01,-0.00,0.00,0.00,0,14,1
10.00,0.08,1.07,-0.08,0.02,-0.01,0.00,0.00,0,14,1
10.05,0.05,1.07,-0.07,-0.01,0.04,0.00,0.00,0,14,1
10.13,-0.01,1.04,-0.06,-0.02,-0.00,0.00,0.00,0,14,1
10.14,0.07,0.96,-0.07,0.01,-0.01,0.00,0.00,0,14,1
10.85,-0.03,1.04,-0.09,-0.05,-0.14,0.00,339.81,0,14,1
11.64,0.59,0.56,-0.09,-0.13,-0.46,0.00,411.76,0,14,1
11.67,0.87,0.44,-0.17,-0.04,-1.07,403.86,580.60,0,14,1
10.63,2.16,-0.02,-0.46,0.18,-1.65,0.00,0.00,0,14,1
9.17,3.30,0.51,-0.58,-0.34,-1.77,375.89,520.49,0,14,1
8.78,4.59,0.79,-0.71,-0.25,-2.05,360.38,490.96,0,14,1
7.75,6.63,-0.02,-0.95,-0.77,-2.42,602.51,854.33,0,14,1
5.39,5.87,1.07,-1.62,-0.14,-3.30,717.71,966.35,0,14,1
0.51,6.79,4.48,-1.38,-0.60,-2.15,597.91,809.84,0,14,1
1.37,8.01,5.44,-1.04,-0.41,-1.95,862.89,1196.67,0,14,1
0.04,7.52,4.85,-0.79,-0.84,-1.46,1193.68,1585.81,1,14,1
-1.48,7.43,5.18,1.04,1.47,1.83,748.19,787.35,0,15,1
0.25,7.32,3.73,1.52,1.04,2.43,520.39,552.05,0,15,1
1.88,7.29,1.51,1.52,0.53,2.81,355.36,417.26,0,15,1
4.58,6.78,-0.64,0.88,0.50,2.98,0.00,310.27,0,15,1
9.50,5.65,-1.70,0.17,0.62,2.61,548.22,739.37,0,15,1
9.85,3.59,1.10,-0.12,0.27,1.90,328.06,379.07,0,15,1
10.11,2.65,0.84,-0.04,0.26,1.47,0.00,325.05,0,15,1
10.29,1.91,0.40,-0.10,0.19,1.23,0.00,0.00,0,15,1
12.67,1.05,0.99,-0.03,-0.20,0.61,0.00,0.00,0,15,1
11.29,0.99,0.87,-0.13,0.15,-0.12,0.00,0.00,0,15,1
9.71,1.13,1.17,-0.06,-0.34,0.14,0.00,0.00,0,15,1
9.84,1.00,1.15,-0.07,0.23,-0.02,0.00,0.00,0,15,1
10.12,0.97,1.18,-0.03,0.02,0.04,0.00,0.00,0,15,1
9.89,1.12,1.17,-0.05,0.05,0.01,0.00,0.00,0,15,1
9.96,0.94,1.16,-0.05,0.02,0.01,0.00,0.00,0,15,1
10.24,1.07,1.10,-0.05,0.02,-0.04,0.00,0.00,0,15,1
9.96,1.13,1.28,-0.07,0.16,-0.13,0.00,354.50,0,15,1
10.47,1.28,1.35,-0.05,0.04,-0.20,0.00,452.91,0,15,1
10.85,1.67,1.12,-0.07,-0.05,-0.55,0.00,316.34,0,15,1
11.32,2.34,0.82,-0.15,-0.16,-0.90,388.08,561.58,0,15,1
10.74,3.17,0.52,-0.29,0.00,-1.36,437.43,660.09,0,15,1
10.20,4.15,0.03,-0.54,-0.39,-1.82,0.00,346.71,0,15,1
8.05,5.72,0.38,-0.83,-0.48,-1.96,425.17,656.60,0,15,1
6.85,6.25,1.52,-1.00,-0.49,-2.48,458.10,574.89,0,15,1
3.39,7.72,2.07,-1.31,-0.97,-2.45,624.92,889.03,0,15,1
2.99,8.13,2.21,-1.56,-0.95,-2.78,590.18,815.36,0,15,1
-0.05,6.72,5.03,-1.39,-0.42,-2.50,673.93,822.87,0,15,1
-1.52,7.29,5.81,-0.69,-0.94,-1.08,1026.73,1394.19,0,15,1
-0.64,8.03,5.33,-0.45,-0.70,-0.46,1123.75,1426.98,1,15,1
-2.38,7.18,6.25,1.07,1.74,1.58,735.83,788.23,0,16,1
-1.89,7.13,4.29,1.48,1.02,2.30,433.87,496.61,0,16,1
0.08,7.74,2.00,1.56,0.99,2.61,595.21,911.48,0,16,1
2.81,7.12,-0.66,1.08,0.94,2.98,456.70,527.27,0,16,1
6.60,5.54,-1.06,0.46,0.53,3.25,409.10,497.89,0,16,1
10.96,3.55,-0.33,0.03,0.52,2.80,307.13,349.63,0,16,1
11.25,1.96,0.04,-0.08,0.52,1.76,319.50,354.04,0,16,1
10.70,0.93,0.49,-0.24,0.08,1.26,0.00,0.00,0,16,1
12.35,0.44,0.32,-0.18,0.38,0.48,0.00,0.00,0,16,1
10.47,0.56,0.74,-0.14,0.24,-0.12,0.00,0.00,0,16,1
9.61,0.64,0.90,-0.04,0.02,0.04,0.00,0.00,0,16,1
10.08,0.58,1.05,-0.10,0.03,0.00,0.00,0.00,0,16,1
9.97,0.70,1.09,-0.04,0.10,-0.02,0.00,0.00,0,16,1
10.00,0.87,1.18,-0.08,0.02,-0.01,0.00,0.00,0,16,1
10.17,0.79,1.10,-0.07,0.05,0.02,0.00,0.00,0,16,1
10.29,0.73,1.23,-0.07,0.01,-0.04,0.00,0.00,0,16,1
11.30,0.83,1.35,-0.02,0.14,-0.39,0.00,377.46,0,16,1
11.96,1.65,0.35,-0.05,-0.25,-1.00,373.13,538.94,0,16,1
10.60,2.46,0.38,-0.38,0.12,-1.45,507.74,827.99,0,16,1
9.32,3.53,1.00,-0.52,-0.18,-1.80,469.29,618.25,0,16,1
8.86,5.05,0.22,-0.76,-0.24,-2.10,445.85,628.70,0,16,1
7.01,5.95,1.24,-0.98,-0.69,-2.32,395.33,501.66,0,16,1
5.28,6.71,1.45,-1.24,-0.99,-2.42,538.56,830.65,0,16,1
2.61,7.81,2.57,-1.31,-0.71,-2.15,478.02,660.40,0,16,1
0.06,7.17,4.23,-1.19,-0.57,-1.59,565.41,780.77,0,16,1
0.31,6.27,4.87,-1.20,-0.33,-1.76,958.75,1395.08,0,16,1
-0.58,7.15,5.73,-0.67,-0.22,-0.91,1009.20,1353.28,0,16,1
-1.58,7.11,6.63,-0.35,-0.20,-0.38,1104.11,1414.24,1,16,1
-2.50,7.03,5.54,1.10,1.64,1.79,882.99,922.94,0,17,1
-0.29,7.04,3.82,1.53,1.62,2.24,479.74,541.70,0,17,1
1.33,8.44,0.34,1.39,1.01,2.49,452.54,525.99,0,17,1
2.72,7.20,-0.28,0.50,1.15,2.99,426.99,476.02,0,17,1
7.91,6.12,-0.60,0.08,-0.23,3.13,325.77,378.99,0,17,1
12.28,4.05,0.64,-0.17,-0.05,2.26,447.05,586.32,0,17,1
9.81,2.96,1.28,-0.19,0.32,1.36,325.39,414.35,0,17,1
9.60,2.28,1.20,-0.08,0.64,0.97,0.00,0.00,0,17,1
10.08,1.46,0.95,0.01,-0.26,1.12,0.00,0.00,0,17,1
12.44,0.62,0.51,-0.05,0.27,0.70,0.00,0.00,0,17,1
11.02,0.81,1.07,-0.12,0.29,-0.17,0.00,0.00,0,17,1
9.43,1.03,0.93,-0.09,-0.17,0.10,0.00,0.00,0,17,1
10.27,0.66,1.32,-0.14,0.12,0.00,0.00,0.00,0,17,1
9.92,0.79,1.09,-0.06,0.01,0.04,0.00,0.00,0,17,1
9.98,0.70,1.28,-0.08,0.09,0.01,0.00,0.00,0,17,1
10.01,0.87,1.08,-0.05,0.06,0.02,0.00,0.00,0,17,1
9.86,0.70,1.21,-0.08,0.04,0.01,0.00,0.00,0,17,1
9.99,0.69,1.11,-0.09,0.04,0.00,0.00,0.00,0,17,1
10.16,0.73,1.11,-0.09,0.00,-0.03,0.00,0.00,0,17,1
11.07,0.83,1.51,-0.06,0.13,-0.27,347.23,549.98,0,17,1
11.48,1.31,0.84,0.01,-0.26,-0.83,356.17,486.01,0,17,1
11.49,2.12,0.34,-0.32,0.16,-1.49,358.32,571.26,0,17,1
9.01,3.43,0.94,-0.50,-0.26,-1.91,306.10,386.53,0,17,1
8.59,4.80,0.73,-0.77,-0.26,-1.98,376.98,575.63,0,17,1
8.10,6.44,0.32,-0.98,-0.62,-2.27,467.73,671.37,0,17,1
5.29,6.11,0.89,-1.34,-0.87,-2.52,507.97,670.44,0,17,1
4.02,7.15,1.82,-1.75,-0.70,-2.40,449.71,600.84,0,17,1
0.98,8.11,3.91,-1.27,-0.54,-1.76,582.55,793.45,0,17,1
1.86,7.67,4.13,-1.56,-0.68,-2.33,706.13,1101.00,0,17,1
-3.98,6.87,7.17,-0.54,-0.05,-0.52,950.59,1270.52,0,17,1
-1.69,7.21,6.08,-0.26,0.18,-0.22,1130.27,1428.15,1,17,1
-2.42,6.83,6.05,1.26,1.98,1.76,719.84,783.53,0,18,1
-1.14,7.46,2.99,1.38,1.16,2.39,436.80,516.57,0,18,1
0.29,7.92,1.21,1.05,0.72,2.79,451.68,530.15,0,18,1
3.50,7.39,0.32,0.38,0.70,3.04,408.36,472.68,0,18,1
7.91,6.07,0.62,-0.01,0.00,2.92,362.00,431.16,0,18,1
9.73,4.04,1.37,-0.09,0.53,2.05,350.60,394.83,0,18,1
8.94,2.71,1.37,-0.09,0.02,1.54,0.00,335.22,0,18,1
10.45,2.23,0.68,-0.09,-0.23,1.17,0.00,0.00,0,18,1
10.30,1.51,1.49,0.01,-0.32,0.95,0.00,0.00,0,18,1
12.31,1.08,0.22,-0.02,-0.12,0.34,0.00,0.00,0,18,1
9.92,1.17,1.07,-0.11,0.40,-0.17,0.00,0.00,0,18,1
10.08,1.23,0.39,-0.08,-0.11,0.13,0.00,0.00,0,18,1
10.26,0.91,1.09,-0.11,0.11,0.00,0.00,0.00,0,18,1
10.02,1.18,0.65,-0.04,-0.00,0.00,0.00,0.00,0,18,1
10.03,1.19,0.94,-0.10,0.04,0.01,0.00,0.00,0,18,1
10.17,1.27,0.80,-0.06,-0.00,0.02,0.00,0.00,0,18,1
10.63,1.22,1.02,-0.06,0.02,-0.10,0.00,367.08,0,18,1
11.29,1.55,0.90,-0.02,-0.05,-0.65,0.00,0.00,0,18,1
11.44,2.38,0.13,-0.30,0.08,-1.30,391.17,581.83,0,18,1
9.68,3.09,0.80,-0.47,0.11,-1.68,0.00,310.43,0,18,1
9.02,4.34,0.96,-0.79,-0.07,-2.08,500.03,798.12,0,18,1
7.95,5.47,1.61,-0.98,-0.53,-2.27,452.88,627.54,0,18,1
5.63,6.52,1.68,-1.02,-0.88,-2.43,494.79,679.73,0,18,1
3.42,6.94,1.96,-1.22,-0.28,-2.08,613.17,929.84,0,18,1
1.72,8.51,2.59,-1.33,-0.20,-2.14,501.30,669.63,0,18,1
-0.81,7.70,5.50,-1.24,-0.94,-1.70,701.87,939.70,0,18,1
-2.31,6.87,6.78,-0.83,-0.26,-1.35,1080.62,1482.93,1,18,1
-2.09,7.01,6.59,0.42,0.62,0.57,669.43,784.91,0,19,1
-2.34,7.55,5.47,1.08,1.53,1.57,464.62,523.87,0,19,1
-2.44,7.27,4.23,1.31,1.47,2.26,386.43,448.83,0,19,1
0.82,7.18,2.34,1.17,0.93,2.73,505.75,588.19,0,19,1
3.95,7.11,1.44,1.07,0.88,3.03,525.70,635.34,0,19,1
8.06,5.87,-0.15,0.73,0.26,3.06,388.64,475.82,0,19,1
11.28,3.94,0.22,0.09,0.00,2.24,337.76,432.06,0,19,1
10.30,3.17,0.77,-0.01,0.32,1.40,0.00,0.00,0,19,1
9.86,2.39,0.91,-0.01,0.09,1.12,0.00,0.00,0,19,1
11.21,1.53,0.83,-0.03,-0.18,0.92,0.00,0.00,0,19,1
12.48,1.07,0.62,-0.09,0.27,0.06,0.00,0.00,0,19,1
8.33,1.47,1.59,-0.10,0.29,-0.01,0.00,0.00,0,19,1
10.53,1.16,1.02,-0.10,0.02,0.07,0.00,0.00,0,19,1
9.58,1.30,1.24,-0.06,0.14,-0.01,0.00,0.00,0,19,1
10.02,1.22,1.30,-0.07,0.04,0.03,0.00,0.00,0,19,1
9.87,1.38,1.27,-0.08,0.05,0.02,0.00,0.00,0,19,1
10.11,1.33,1.46,-0.06,0.07,-0.04,0.00,324.25,0,19,1
10.68,1.37,1.38,-0.01,0.06,-0.26,0.00,383.99,0,19,1
10.80,1.77,1.16,-0.00,-0.11,-0.51,303.18,421.94,0,19,1
11.34,2.47,0.63,-0.22,-0.02,-0.99,0.00,0.00,0,19,1
9.85,3.27,0.97,-0.36,0.10,-1.41,319.55,414.36,0,19,1
8.91,4.45,0.74,-0.60,-0.43,-1.67,0.00,389.66,0,19,1
8.28,5.61,0.76,-0.94,-0.74,-1.93,385.00,577.64,0,19,1
6.34,6.22,1.75,-1.11,-0.75,-2.14,538.40,816.61,0,19,1
5.03,6.98,1.89,-1.18,-0.72,-2.42,567.47,826.31,0,19,1
1.36,7.24,3.12,-1.36,-0.56,-2.09,511.17,655.60,0,19,1
0.50,7.58,4.14,-1.01,-0.32,-1.64,744.94,1056.44,0,19,1
0.22,7.64,4.58,-1.13,-0.29,-1.94,908.32,1327.73,0,19,1
-3.70,6.38,7.24,-0.58,-0.18,-0.91,1014.95,1359.77,0,19,1
-2.81,6.87,6.27,-0.28,0.11,-0.24,942.77,1228.94,0,19,1
-5.33,6.90,7.47,-0.13,0.19,-0.06,1067.92,1374.52,0,19,1
-4.12,6.86,6.26,-0.03,0.03,0.19,1030.62,1267.26,0,19,1
-2.88,7.02,6.25,0.01,0.15,0.30,723.50,886.99,0,19,1
-3.54,6.51,6.66,0.64,1.16,1.23,524.47,601.75,0,19,1
-4.10,7.17,5.20,1.18,1.61,2.21,539.87,601.84,0,19,1
-1.63,7.70,3.06,1.44,0.91,2.78,499.86,576.18,0,19,1
1.67,6.99,1.07,1.14,1.16,3.07,419.91,508.10,0,19,1
5.19,5.90,-0.13,0.58,0.23,3.29,320.80,399.15,0,19,1
9.59,4.43,-0.07,0.12,0.65,3.08,320.57,394.00,0,19,1
12.03,2.72,1.23,-0.09,0.00,2.08,0.00,305.14,0,19,1
9.79,2.01,1.37,-0.07,0.35,1.27,0.00,0.00,0,19,1
10.62,1.37,1.32,-0.05,-0.17,1.08,0.00,0.00,0,19,1
12.69,0.93,1.02,-0.05,0.07,0.24,0.00,0.00,0,19,1
9.78,1.11,1.48,-0.07,0.27,-0.24,0.00,0.00,0,19,1
9.47,1.17,1.34,-0.05,0.09,-0.02,0.00,0.00,0,19,1
10.10,1.27,1.06,-0.09,0.03,-0.01,0.00,0.00,0,19,1
10.09,1.26,1.42,-0.05,0.07,-0.02,0.00,0.00,0,19,1
11.77,1.29,1.49,-0.03,-0.04,-0.50,361.24,486.38,0,19,1
12.10,1.84,1.02,-0.19,0.26,-1.41,438.33,740.34,0,19,1
10.53,3.19,0.99,-0.43,0.04,-2.03,360.19,521.55,0,19,1
9.38,4.50,0.96,-0.72,-0.59,-2.54,405.37,544.12,0,19,1
6.82,5.49,0.91,-1.09,-1.01,-2.70,366.67,465.56,0,19,1
4.26,7.21,1.61,-1.17,-1.36,-2.46,553.29,796.78,0,19,1
3.77,7.88,2.02,-1.46,-0.92,-2.55,538.86,670.02,0,19,1
0.78,7.46,3.59,-1.40,-0.03,-2.56,498.18,718.73,0,19,1
-0.86,8.71,4.48,-0.69,-0.59,-1.08,772.68,1103.33,0,19,1
-3.40,6.86,6.18,-0.51,-0.68,-0.84,987.22,1306.23,0,19,1
-1.42,7.12,5.12,-0.34,-0.62,-0.41,1251.32,1587.98,1,19,1
-2.75,7.34,5.60,0.57,0.56,1.09,678.55,770.60,0,20,1
-2.49,7.65,4.61,0.92,1.09,1.52,523.82,596.32,0,20,1
-0.61,7.65,3.97,1.11,0.86,2.21,526.54,576.92,0,20,1
1.25,7.67,2.77,1.13,0.59,2.70,538.65,625.52,0,20,1
4.53,7.00,0.88,1.02,0.70,3.08,408.70,468.40,0,20,1
8.02,5.39,-0.24,0.70,-0.17,3.04,344.59,431.48,0,20,1
10.82,3.68,0.15,0.38,0.56,2.40,317.32,394.68,0,20,1
11.35,1.89,1.02,0.40,-0.14,1.65,0.00,331.90,0,20,1
10.21,1.64,-1.22,0.09,0.22,1.28,0.00,315.84,0,20,1
12.01,0.47,0.73,-0.10,0.41,0.78,0.00,303.36,0,20,1
11.11,0.64,0.12,0.03,0.12,0.08,0.00,0.00,0,20,1
10.56,0.21,1.26,-0.15,-0.47,0.13,0.00,0.00,0,20,1
8.87,0.42,1.35,-0.05,0.13,-0.02,0.00,0.00,0,20,1
9.96,0.25,1.44,-0.08,0.34,0.00,0.00,0.00,0,20,1
9.73,0.49,1.59,-0.04,0.09,0.03,0.00,0.00,0,20,1
10.02,0.51,1.52,-0.06,0.03,-0.02,0.00,0.00,0,20,1
10.10,0.47,1.64,-0.05,0.07,-0.06,0.00,0.00,0,20,1
11.97,0.55,1.80,-0.02,0.13,-0.40,0.00,447.03,0,20,1
12.28,1.34,0.75,-0.08,-0.20,-1.19,0.00,306.69,0,20,1
10.52,2.31,1.32,-0.35,0.19,-1.75,375.57,583.04,0,20,1
8.99,3.57,1.28,-0.57,-0.32,-2.06,306.76,399.95,0,20,1
8.04,5.13,0.99,-0.83,-0.98,-2.24,335.62,457.14,0,20,1
8.49,7.36,-0.10,-1.34,-1.73,-2.59,559.29,940.02,0,20,1
4.58,7.25,1.55,-1.39,-0.78,-2.28,538.83,673.79,0,20,1
2.36,7.73,2.86,-1.32,-0.48,-2.16,692.24,1013.59,0,20,1
-0.60,5.45,5.69,-1.25,-0.31,-1.93,795.84,1132.70,0,20,1
-2.33,6.98,6.32,-1.03,0.03,-1.41,913.60,1204.89,0,20,1
-3.29,7.62,6.85,-0.44,-0.13,-0.75,930.45,1283.37,0,20,1
-2.48,6.79,6.06,-0.19,0.17,-0.21,925.24,1151.68,0,20,1
-5.20,6.61,6.85,-0.10,0.28,-0.07,1044.90,1336.99,0,20,1
-3.30,7.05,6.40,0.07,0.63,0.22,595.08,681.33,0,20,1
-2.77,7.05,6.20,0.74,1.05,1.54,434.64,497.64,0,20,1
-2.00,6.73,4.91,1.11,1.16,2.42,456.96,519.39,0,20,1
1.26,7.03,3.32,1.15,0.99,3.03,436.54,508.03,0,20,1
5.23,6.67,0.76,1.11,0.78,3.14,401.61,471.07,0,20,1
7.47,5.43,1.39,0.37,0.63,2.98,430.45,522.35,0,20,1
10.10,3.89,1.75,0.12,0.75,2.16,375.73,468.36,0,20,1
9.23,2.93,1.87,0.13,-0.17,1.69,304.99,355.43,0,20,1
8.91,1.62,0.95,0.05,-0.59,1.62,0.00,301.31,0,20,1
12.63,0.52,0.50,0.15,-0.14,1.39,335.82,422.03,0,20,1
11.73,0.06,1.20,-0.15,0.47,-0.17,0.00,322.53,0,20,1
9.17,0.84,1.63,-0.09,0.08,0.05,0.00,0.00,0,20,1
10.72,0.21,1.39,-0.11,0.05,0.01,0.00,0.00,0,20,1
9.47,0.50,1.85,-0.07,0.04,-0.03,0.00,0.00,0,20,1
9.92,0.56,1.67,-0.07,0.19,-0.03,0.00,0.00,0,20,1
10.24,0.68,1.70,-0.07,-0.00,-0.10,0.00,0.00,0,20,1
11.27,0.72,1.23,-0.09,-0.09,-0.41,0.00,313.71,0,20,1
12.17,1.07,1.79,-0.20,0.31,-1.21,434.96,593.80,0,20,1
10.91,2.07,1.09,-0.34,0.31,-1.79,405.75,536.55,0,20,1
10.02,3.53,1.18,-0.57,-0.37,-2.19,354.81,421.02,0,20,1
8.21,5.19,1.91,-0.64,-1.14,-2.34,367.46,494.21,0,20,1
4.66,6.88,2.22,-0.74,-1.02,-2.69,425.42,551.08,0,20,1
4.93,7.87,0.40,-1.26,-1.36,-2.92,556.75,747.08,0,20,1
0.30,5.49,3.86,-1.57,-0.33,-2.57,818.52,1098.05,0,20,1
-4.03,5.42,6.45,-1.05,-0.20,-1.73,1078.26,1439.50,1,20,1
-3.90,7.08,6.16,0.09,0.37,0.33,620.64,725.90,0,21,1
-2.32,7.79,5.19,0.33,0.48,0.58,532.64,605.47,0,21,1
-3.45,7.24,5.11,0.86,1.87,1.32,378.98,443.06,0,21,1
-2.39,7.42,4.23,1.15,0.97,2.52,355.39,399.56,0,21,1
1.66,7.93,1.88,1.10,0.31,2.98,455.20,541.43,0,21,1
5.51,7.56,0.25,0.40,0.19,2.96,563.98,795.24,0,21,1
8.79,5.25,1.71,0.36,0.76,2.58,501.60,658.86,0,21,1
9.84,3.72,1.83,0.39,0.69,2.00,348.18,403.80,0,21,1
8.81,2.74,1.19,0.21,-0.08,1.69,342.55,392.12,0,21,1
10.93,1.66,0.94,0.05,-0.55,1.40,0.00,330.83,0,21,1
12.11,1.36,1.25,0.00,0.19,0.69,0.00,302.04,0,21,1
10.84,1.15,1.53,-0.10,0.17,0.00,0.00,302.32,0,21,1
9.21,1.17,1.90,-0.08,0.02,0.06,0.00,310.50,0,21,1
10.02,1.06,1.57,-0.09,0.16,0.02,0.00,338.06,0,21,1
9.69,1.09,1.61,-0.07,0.09,0.00,0.00,317.34,0,21,1
9.77,0.98,1.83,-0.04,0.01,0.00,0.00,0.00,0,21,1
9.88,1.08,1.85,-0.04,-0.03,0.03,0.00,319.17,0,21,1
11.27,1.34,1.70,-0.01,0.16,-0.25,322.22,389.79,0,21,1
11.08,1.67,1.41,0.03,-0.25,-0.90,349.07,435.10,0,21,1
10.62,2.40,0.46,-0.40,0.30,-1.48,301.06,359.51,0,21,1
8.77,3.65,1.84,-0.51,-0.21,-1.63,393.17,467.07,0,21,1
8.74,4.89,1.78,-0.62,-0.34,-1.72,356.14,437.74,0,21,1
7.24,5.99,1.56,-0.81,-0.44,-1.99,506.41,695.45,0,21,1
6.62,6.25,1.06,-1.21,-0.64,-2.24,474.29,578.26,0,21,1
2.19,6.60,4.27,-0.83,-0.01,-2.11,562.11,720.35,0,21,1
0.29,7.94,3.66,-1.01,-0.57,-1.91,746.91,1012.07,0,21,1
-1.88,7.24,4.73,-0.95,-0.66,-1.56,811.67,1129.76,0,21,1
0.42,7.44,4.78,-0.94,-0.73,-1.50,917.03,1246.42,0,21,1
0.78,8.79,4.61,-0.38,-0.27,-0.58,893.54,1141.35,0,21,1
-0.58,8.20,5.47,-0.30,-0.26,-0.47,882.23,1144.46,0,21,1
-1.88,7.39,5.87,0.05,0.13,0.26,892.54,1171.87,0,21,1
-3.09,6.88,6.11,0.37,1.31,0.69,565.71,686.12,0,21,1
-2.97,7.22,5.95,1.02,1.51,2.00,459.94,551.02,0,21,1
-0.65,7.06,4.89,1.11,1.12,2.46,453.73,527.38,0,21,1
1.63,7.73,1.69,1.11,0.90,2.93,463.39,524.15,0,21,1
4.61,7.19,0.67,0.64,0.46,3.12,373.00,464.89,0,21,1
8.80,4.97,0.37,0.32,0.02,2.87,455.13,539.06,0,21,1
11.04,3.16,1.03,0.07,0.72,2.11,314.76,379.21,0,21,1
10.82,2.21,0.63,0.11,-0.45,1.32,0.00,325.89,0,21,1
9.57,2.03,0.89,-0.01,-0.13,1.24,0.00,0.00,0,21,1
12.07,1.01,0.61,-0.02,0.20,0.99,0.00,0.00,0,21,1
11.46,0.61,0.97,-0.09,0.33,0.09,0.00,0.00,0,21,1
9.81,0.80,1.19,-0.08,0.14,0.04,0.00,0.00,0,21,1
10.32,0.52,1.32,-0.09,0.06,0.02,0.00,0.00,0,21,1
9.72,0.62,1.31,-0.09,0.14,0.01,0.00,0.00,0,21,1
10.08,0.61,1.44,-0.08,0.06,0.05,0.00,0.00,0,21,1
10.21,0.59,1.47,-0.08,-0.02,-0.01,0.00,0.00,0,21,1
12.15,0.55,1.48,-0.01,-0.44,-0.49,0.00,302.61,0,21,1
12.11,1.33,0.38,-0.15,-0.08,-1.58,0.00,332.04,0,21,1
10.51,2.70,-0.23,-0.62,-0.09,-2.11,375.98,495.41,0,21,1
9.33,4.21,0.37,-0.96,-0.53,-2.30,332.55,429.42,0,21,1
7.02,6.11,0.77,-1.07,-0.47,-2.64,432.59,611.82,0,21,1
4.01,6.07,1.43,-1.47,-0.74,-3.32,715.74,1082.84,0,21,1
1.02,6.62,2.11,-1.04,0.02,-2.45,891.12,1216.02,0,21,1
-1.66,7.40,4.40,-1.07,-0.56,-1.85,953.29,1272.36,0,21,1
-2.14,7.80,5.45,-0.83,-0.16,-1.57,1278.60,1604.45,1,21,1
-2.04,7.70,4.45,0.34,1.05,0.79,920.71,989.39,0,22,1
-0.72,7.33,4.21,0.72,0.97,1.70,572.15,636.92,0,22,1
-1.53,7.02,3.67,1.01,0.80,2.45,346.29,410.90,0,22,1
1.76,7.12,1.79,1.11,0.11,3.17,427.54,507.62,0,22,1
5.59,6.63,1.23,0.83,0.55,3.29,461.10,579.30,0,22,1
10.08,4.19,0.89,0.67,1.07,2.75,549.51,776.09,0,22,1
10.52,2.91,-0.00,0.24,0.02,1.93,383.37,462.43,0,22,1
10.47,2.53,0.01,-0.04,0.07,1.15,329.27,383.35,0,22,1
12.57,2.38,0.30,-0.04,0.00,0.62,309.08,349.74,0,22,1
11.32,2.49,0.27,-0.15,0.39,-0.33,0.00,307.98,0,22,1
9.73,2.70,0.88,-0.23,0.03,0.03,0.00,0.00,0,22,1
9.65,2.54,1.01,-0.25,0.46,-0.03,0.00,0.00,0,22,1
9.73,2.36,2.01,-0.41,0.30,0.08,315.98,408.10,0,22,1
9.54,2.23,1.94,-0.37,0.21,0.04,0.00,306.66,0,22,1
9.39,1.72,2.53,-0.29,0.17,-0.01,0.00,343.74,0,22,1
8.99,1.95,2.80,-0.25,0.23,-0.07,0.00,0.00,0,22,1
9.20,2.13,3.07,-0.19,0.15,-0.12,0.00,330.25,0,22,1
9.16,2.56,3.37,-0.11,0.11,-0.07,0.00,0.00,0,22,1
9.06,2.33,3.19,-0.07,0.09,-0.05,0.00,304.44,0,22,1
8.99,2.60,3.15,-0.10,0.04,-0.06,0.00,378.24,0,22,1
9.18,2.62,3.14,-0.15,0.02,-0.04,0.00,0.00,0,22,1
9.04,2.70,3.12,-0.14,-0.01,0.01,0.00,355.73,0,22,1
9.07,2.60,3.12,-0.12,-0.02,0.04,0.00,0.00,0,22,1
