ax,ay,az,gx,gy,gz,mav,rms,label_kontraksi,repetisi,id_orang
47,-0.34,4.73,-0.09,0.03,0.03,0.00,314.19,0,0,1
8.61,-0.48,4.74,-0.06,0.03,0.03,0.00,0.00,0,0,1
8.61,-0.44,4.75,-0.06,0.04,0.02,0.00,0.00,0,0,1
8.47,-0.40,5.11,-0.05,-0.03,-0.00,0.00,0.00,0,0,1
8.48,-0.30,5.63,-0.00,-0.10,-0.04,0.00,0.00,0,0,1
8.36,-0.10,5.66,-0.02,-0.36,-0.03,0.00,0.00,0,0,1
8.66,-0.09,4.71,0.04,-0.58,-0.05,0.00,0.00,0,0,1
8.94,0.11,3.33,0.06,-0.64,-0.08,0.00,0.00,0,0,1
10.01,0.14,2.50,0.02,-0.52,-0.05,0.00,0.00,0,0,1
9.70,0.15,1.71,-0.02,-0.09,0.10,0.00,324.15,0,0,1
9.89,-0.22,1.16,0.06,-0.19,0.15,0.00,310.00,0,0,1
10.19,0.08,1.76,0.16,-0.12,0.06,483.90,683.16,0,0,1
10.32,0.24,1.38,0.10,0.07,-0.11,696.89,887.94,0,0,1
8.78,-0.22,1.98,-0.14,-0.15,0.14,622.66,779.06,0,0,1
16.12,-0.50,1.49,0.04,-0.50,-1.09,668.74,963.12,0,0,1
12.44,0.76,0.23,0.16,0.24,-3.05,659.89,831.49,0,0,1
9.04,3.15,-0.90,-0.78,-0.74,-4.18,850.82,1222.16,0,0,1
1.51,1.48,2.15,-1.58,-0.33,-4.13,1248.26,1533.83,1,0,1
-5.44,7.19,6.55,-0.02,0.57,-0.33,969.22,1210.36,0,1,1
-6.63,6.79,5.81,0.90,1.48,1.51,636.87,749.03,0,1,1
-3.65,6.34,3.07,1.34,1.55,3.23,515.29,607.81,0,1,1
2.76,5.47,0.30,1.49,0.70,4.01,1159.26,1499.96,1,1,1
6.61,3.91,-0.09,0.99,0.65,3.97,1313.38,1654.18,1,1,1
11.27,1.89,-0.75,0.10,0.38,3.22,810.29,1042.97,0,2,1
11.71,0.73,-0.61,-0.33,0.46,2.24,727.76,837.02,0,2,1
12.07,-0.47,1.48,-0.45,0.36,1.70,688.45,768.65,0,2,1
12.64,-1.07,0.93,-0.09,0.27,-0.12,630.24,758.28,0,2,1
9.29,0.01,0.73,-0.08,0.28,-0.07,475.50,551.29,0,2,1
9.85,-0.31,1.18,-0.12,0.13,-0.11,418.19,488.17,0,2,1
9.96,0.05,1.15,-0.08,-0.02,-0.06,474.25,599.64,0,2,1
9.79,0.04,0.98,-0.07,0.09,-0.04,344.73,414.13,0,2,1
10.05,0.01,1.23,-0.12,0.01,0.01,350.53,450.65,0,2,1
9.93,-0.06,1.20,-0.11,0.01,0.01,0.00,308.18,0,2,1
10.15,0.08,0.86,-0.08,-0.03,-0.11,311.41,441.91,0,2,1
10.27,0.13,1.43,-0.08,-0.06,-0.29,303.13,364.46,0,2,1
15.05,0.52,0.13,-0.12,0.33,-1.17,444.36,603.16,0,2,1
12.22,1.26,0.48,-0.15,-0.07,-2.92,726.20,1080.87,0,2,1
9.22,2.99,-0.22,-0.95,-0.45,-3.65,669.60,983.71,0,2,1
3.19,4.43,1.10,-1.20,-0.83,-3.27,935.59,1214.65,0,2,1
4.65,4.95,1.93,-1.78,-1.06,-3.54,944.41,1256.52,0,2,1
-0.36,5.57,4.14,-1.16,-0.08,-3.42,938.82,1172.99,0,2,1
-4.46,7.15,5.16,-0.59,-0.22,-1.65,1218.97,1498.22,1,2,1
-4.74,6.74,3.80,0.75,0.66,2.39,889.55,939.97,0,3,1
-2.20,7.06,2.79,0.94,0.81,3.19,1025.81,1425.83,1,3,1
2.58,6.22,1.29,0.75,0.68,3.49,1686.27,1972.83,1,3,1
6.56,5.51,0.76,0.23,0.38,3.54,1321.36,1530.03,1,3,1
9.68,3.24,1.79,0.09,0.55,2.84,1042.76,1162.61,0,4,1
10.89,2.04,1.50,0.31,0.01,2.15,825.82,913.85,0,4,1
10.34,0.97,0.28,0.28,-0.31,1.60,564.11,642.06,0,4,1
11.98,0.30,0.05,-0.17,0.06,1.15,546.40,628.77,0,4,1
13.32,-0.29,1.19,-0.14,-0.34,0.61,463.75,568.42,0,4,1
9.37,0.15,0.75,0.03,0.12,-0.08,467.95,556.57,0,4,1
10.49,-0.10,0.64,-0.18,0.12,-0.04,433.11,529.37,0,4,1
9.89,-0.06,1.14,-0.12,0.09,-0.04,453.20,579.27,0,4,1
10.21,-0.06,1.01,-0.07,-0.04,-0.01,394.59,498.26,0,4,1
9.90,0.15,1.00,-0.10,0.01,0.02,468.51,556.21,0,4,1
10.25,0.07,1.11,-0.06,-0.01,0.01,399.51,490.32,0,4,1
9.96,0.08,1.04,-0.07,0.06,-0.03,441.71,560.99,0,4,1
10.61,0.03,1.18,-0.10,-0.04,0.01,462.24,536.00,0,4,1
11.55,0.04,1.53,-0.06,-0.20,-0.27,572.19,722.63,0,4,1
11.93,0.52,0.84,-0.05,0.10,-1.48,640.05,870.94,0,4,1
11.22,2.16,0.34,-0.15,-0.47,-1.95,844.19,1099.70,0,4,1
10.82,3.64,-0.35,-0.53,-0.19,-2.57,793.87,1040.37,0,4,1
8.35,4.66,-0.20,-0.75,-0.18,-3.44,869.75,1169.53,0,4,1
1.51,3.98,1.90,-1.02,-0.22,-3.69,977.57,1265.38,0,4,1
0.27,5.45,3.08,-1.12,-0.39,-3.86,1321.00,1587.55,1,4,1
-6.23,8.12,3.47,0.21,0.84,0.24,930.87,1050.67,0,5,1
-5.20,8.20,2.11,0.59,0.92,1.84,638.88,686.66,0,5,1
-4.34,7.14,1.77,0.72,0.98,3.04,473.94,520.81,0,5,1
0.69,6.63,0.82,0.96,0.60,3.77,1313.85,1804.04,1,5,1
4.89,4.86,-0.20,0.68,0.06,3.74,578.40,721.35,0,6,1
8.68,2.56,-0.14,0.13,0.19,3.58,620.78,742.01,0,6,1
12.10,0.86,-0.76,-0.04,0.19,2.80,533.08,601.75,0,6,1
13.60,-0.87,-0.49,-0.25,0.11,1.68,552.89,632.67,0,6,1
12.24,-0.69,-0.18,-0.21,0.42,0.17,351.17,406.49,0,6,1
9.98,-0.12,1.10,0.02,0.01,0.11,384.40,447.40,0,6,1
9.93,-0.45,-0.12,0.01,0.03,-0.02,478.14,614.38,0,6,1
9.67,-0.26,-0.06,-0.07,0.11,0.03,346.98,431.50,0,6,1
10.16,-0.45,0.49,-0.07,-0.03,0.05,303.61,360.53,0,6,1
10.06,-0.23,0.00,-0.07,0.07,-0.01,0.00,307.70,0,6,1
9.94,-0.33,0.62,-0.13,0.13,0.02,0.00,315.31,0,6,1
9.80,-0.19,0.60,-0.05,0.09,-0.02,311.02,403.13,0,6,1
9.91,-0.31,0.52,-0.06,0.12,0.03,405.08,540.22,0,6,1
10.36,-0.27,0.35,-0.12,0.07,-0.09,0.00,338.34,0,6,1
10.91,-0.17,0.46,-0.09,-0.07,-0.08,0.00,355.85,0,6,1
12.46,0.08,-0.48,-0.26,0.01,-0.70,564.02,888.21,0,6,1
10.66,0.59,2.26,-0.12,0.46,-2.02,493.22,690.24,0,6,1
9.38,3.00,0.34,-0.10,0.04,-2.18,1014.16,1424.54,1,6,1
-1.74,3.11,2.14,-0.39,0.64,-3.58,1056.68,1359.23,0,7,1
-3.59,5.89,4.47,-0.46,-0.65,-3.06,1041.36,1322.69,0,7,1
-7.03,8.87,3.24,-0.23,-0.95,-0.49,955.52,1199.48,0,7,1
-6.06,9.28,3.12,-0.02,0.06,0.20,762.69,942.13,0,7,1
-5.84,8.00,2.90,0.30,0.68,1.03,647.65,725.20,0,7,1
-4.42,7.25,2.08,0.59,0.88,2.57,481.46,546.58,0,7,1
0.56,7.71,1.40,1.02,0.69,3.28,1539.46,1948.50,1,7,1
4.15,8.18,0.04,0.73,0.31,3.24,1134.70,1404.63,1,7,1
8.44,5.92,-0.79,0.42,0.08,2.76,881.46,1059.18,0,8,1
10.10,3.60,-1.31,0.02,0.23,2.34,705.28,807.84,0,8,1
10.23,2.28,-0.98,-0.20,0.43,2.07,582.73,640.43,0,8,1
12.68,0.88,0.35,-0.59,0.47,1.13,431.12,489.52,0,8,1
11.76,0.87,1.56,-0.13,0.03,0.43,384.32,429.03,0,8,1
10.85,0.63,0.19,0.10,-0.01,-0.01,321.22,362.36,0,8,1
10.18,0.91,-0.14,-0.06,0.14,0.09,529.22,859.47,0,8,1
10.30,0.85,0.20,-0.18,0.20,-0.12,433.32,514.05,0,8,1
10.36,0.90,0.67,-0.15,0.18,0.03,0.00,318.78,0,8,1
10.27,0.90,0.70,-0.11,0.07,-0.01,0.00,0.00,0,8,1
10.28,0.87,0.88,-0.07,-0.06,-0.02,0.00,0.00,0,8,1
10.55,0.99,0.14,-0.15,0.01,-0.16,363.94,619.58,0,8,1
12.32,1.13,0.11,-0.27,-0.07,-0.73,315.96,420.42,0,8,1
10.72,2.14,0.61,-0.33,0.15,-1.52,324.31,400.54,0,8,1
10.06,3.35,0.60,-0.33,0.01,-1.90,702.79,994.32,0,8,1
10.68,5.12,0.00,-0.48,-0.13,-2.76,747.73,1041.14,0,8,1
6.17,5.42,0.79,-0.54,0.06,-3.31,806.62,1106.38,0,8,1
1.95,6.17,1.19,-0.42,0.19,-3.20,808.53,1108.10,0,8,1
-1.61,5.43,1.67,-1.13,-0.43,-3.48,899.71,1201.21,0,8,1
-6.39,5.61,4.63,-0.38,0.63,-1.56,1110.23,1391.88,0,8,1
-5.98,8.12,4.02,-0.15,0.36,-1.20,1177.01,1482.28,1,8,1
-4.20,7.24,2.36,0.53,0.86,2.15,939.75,979.13,0,9,1
-1.86,7.73,1.84,0.96,0.36,2.86,519.75,604.28,0,9,1
1.47,8.48,0.07,1.03,1.04,3.22,568.06,834.60,0,9,1
4.39,6.92,-0.33,0.44,0.39,3.32,445.41,547.59,0,9,1
9.15,5.38,-1.00,-0.05,0.17,3.04,580.07,740.19,0,9,1
11.98,3.70,-0.72,-0.25,0.17,2.39,445.59,529.70,0,9,1
10.13,1.99,0.42,-0.52,0.62,1.62,361.90,416.12,0,9,1
12.22,0.71,1.21,-0.18,-0.17,1.12,335.79,380.85,0,9,1
11.28,0.69,0.92,-0.01,0.19,0.19,0.00,329.14,0,9,1
10.08,0.70,0.56,0.04,-0.05,0.01,0.00,346.33,0,9,1
10.34,0.66,0.25,-0.09,0.02,-0.09,0.00,0.00,0,9,1
10.00,0.85,0.94,-0.20,0.02,-0.08,0.00,0.00,0,9,1
10.12,0.93,0.85,-0.09,0.06,-0.02,0.00,0.00,0,9,1
10.12,0.99,0.76,-0.13,0.08,-0.06,0.00,0.00,0,9,1
9.80,1.06,1.02,-0.10,0.11,-0.01,0.00,0.00,0,9,1
10.05,0.92,0.98,-0.06,0.05,-0.02,0.00,0.00,0,9,1
10.01,1.16,0.87,-0.04,-0.03,-0.04,0.00,0.00,0,9,1
10.11,1.07,0.97,-0.07,0.04,-0.02,0.00,335.05,0,9,1
11.83,1.14,0.93,-0.07,-0.05,-0.34,361.31,514.59,0,9,1
11.79,1.95,0.29,-0.14,0.01,-1.17,317.32,445.36,0,9,1
11.43,2.73,0.62,-0.24,0.56,-1.87,468.58,638.13,0,9,1
10.59,3.78,0.68,-0.29,-0.07,-2.53,542.11,797.09,0,9,1
8.63,5.12,0.50,-0.45,-0.22,-3.00,703.73,975.58,0,9,1
4.11,5.84,1.92,-0.52,-0.06,-3.33,824.64,1109.70,0,9,1
0.85,7.78,1.82,-0.47,-0.57,-2.93,722.30,880.65,0,9,1
-0.99,7.70,2.55,-0.74,-1.06,-2.79,1058.81,1302.17,0,9,1
-2.79,8.29,2.98,-0.28,-0.16,-1.86,1062.28,1293.38,0,9,1
-5.84,7.31,4.01,-0.11,-0.37,-1.11,1086.47,1326.19,0,9,1
-7.30,6.89,3.01,-0.01,0.25,0.04,1049.16,1291.31,0,9,1
-8.70,7.19,3.81,0.01,0.10,0.84,770.92,831.05,0,9,1
-5.20,6.86,2.94,0.28,0.51,1.89,564.18,611.41,0,9,1
-4.09,6.35,2.47,0.51,0.68,3.00,386.01,439.28,0,9,1
1.21,7.19,1.17,0.71,0.32,3.44,1216.84,1738.28,1,9,1
9.83,3.99,-0.23,-0.00,0.22,2.36,525.69,618.26,0,10,1
11.43,2.27,0.28,-0.02,0.02,1.80,485.88,571.99,0,10,1
10.74,1.16,0.24,-0.06,0.03,1.45,445.99,520.13,0,10,1
12.90,0.45,0.64,-0.21,0.42,0.57,463.51,588.44,0,10,1
9.21,0.99,0.89,-0.11,0.05,-0.05,427.69,500.25,0,10,1
9.85,0.72,0.82,-0.06,-0.07,0.05,396.20,452.15,0,10,1
9.60,0.80,0.65,-0.12,0.07,-0.06,410.57,485.20,0,10,1
9.99,0.91,0.90,-0.08,0.16,-0.00,377.67,478.74,0,10,1
9.89,1.08,0.85,-0.09,0.20,-0.02,378.96,462.09,0,10,1
9.94,0.87,0.92,-0.14,0.15,0.03,364.26,486.43,0,10,1
10.12,1.00,1.09,-0.12,0.10,0.03,358.58,459.45,0,10,1
10.01,0.95,1.17,-0.07,0.02,0.09,389.61,471.87,0,10,1
10.43,1.12,1.02,-0.11,0.01,0.07,368.93,466.96,0,10,1
11.66,1.25,1.31,-0.11,-0.18,0.06,490.04,644.73,0,10,1
12.02,1.07,0.77,-0.16,-0.06,-0.65,494.38,565.99,0,10,1
7.64,1.94,0.93,-0.22,-0.48,-0.70,455.33,599.83,0,10,1
12.29,2.00,0.53,-0.41,-0.17,-0.97,674.09,967.78,0,10,1
11.45,3.12,0.13,-0.31,-0.10,-1.72,825.38,1175.75,0,10,1
10.44,4.64,-0.34,-0.46,-0.33,-2.48,801.05,1103.73,0,10,1
5.95,5.15,0.57,-0.60,-0.45,-2.85,1142.87,1469.03,1,10,1
-3.86,8.43,1.66,-0.41,-0.52,-1.54,1303.49,1558.86,1,10,1
-4.52,9.11,2.35,0.02,0.11,0.42,945.05,1126.17,0,11,1
-6.82,8.15,3.04,0.18,0.55,1.35,770.26,885.60,0,11,1
-1.98,7.83,2.13,0.59,0.69,2.62,705.85,827.72,0,11,1
1.32,7.49,1.32,0.86,0.08,3.57,1129.98,1430.91,1,11,1
6.99,6.91,-0.65,0.87,0.32,3.26,885.01,1160.16,0,12,1
9.77,3.73,-1.85,0.65,0.02,2.82,1223.82,1441.61,1,12,1
10.03,1.42,-1.84,0.30,0.00,2.47,1110.63,1313.30,0,13,1
11.49,0.16,-1.56,0.23,0.09,2.04,803.38,918.37,0,13,1
12.31,-1.59,-1.86,0.09,-0.11,1.46,676.46,771.75,0,13,1
12.64,-1.84,-1.58,-0.01,0.21,0.31,864.85,1114.41,0,13,1
9.84,-1.75,-0.87,-0.08,0.34,-0.17,1441.76,1674.53,1,13,1
10.69,-1.09,-1.48,-0.14,0.12,0.02,1413.66,1606.66,1,13,1
10.81,-0.80,-1.12,-0.15,0.24,-0.12,1449.82,1605.23,1,13,1
9.30,-1.48,-0.15,-0.26,-0.04,0.06,1296.32,1453.15,1,13,1
10.86,-1.00,-1.26,-0.27,0.10,0.03,1014.31,1123.47,0,14,1
9.23,-1.35,-0.30,-0.16,0.17,-0.01,1377.11,1555.23,1,14,1
10.18,-1.15,-0.32,-0.03,0.13,-0.05,1361.18,1509.85,1,14,1
10.03,-0.67,-0.23,-0.03,0.15,-0.16,1299.72,1474.84,1,14,1
11.01,-0.45,-0.28,-0.08,0.06,-0.18,1427.49,1575.07,1,14,1
14.45,0.84,-1.05,0.04,-0.51,-1.75,1169.03,1332.41,0,15,1
11.65,1.61,-0.97,-0.28,-0.22,-3.13,1151.08,1316.49,0,15,1
5.27,3.53,-0.07,-0.54,-0.33,-3.19,1109.20,1307.94,0,15,1
8.01,8.11,-1.04,-0.61,-0.94,-2.95,1271.14,1429.36,1,15,1
2.90,5.68,-0.95,-1.49,-0.65,-4.07,1471.83,1680.62,1,15,1
-0.63,4.01,4.01,-1.15,-1.33,-3.10,1113.42,1322.79,0,16,1
-4.21,8.50,2.10,-0.40,-0.40,-0.85,1080.04,1266.11,0,16,1
-5.09,8.69,2.93,-0.08,0.28,-0.38,1049.13,1198.00,0,16,1
-3.73,8.29,2.53,0.01,-0.19,0.14,799.80,911.36,0,16,1
-5.01,8.57,1.89,0.42,0.91,1.26,639.71,697.67,0,16,1
-4.13,8.12,1.29,0.77,1.85,2.00,410.92,486.05,0,16,1
-2.32,7.26,0.01,0.85,1.00,3.14,654.08,883.94,0,16,1
5.96,8.48,-3.03,0.46,0.53,3.46,578.02,769.42,0,16,1
7.03,5.50,-1.45,0.03,0.17,3.10,595.67,710.39,0,16,1
8.60,2.34,-0.37,-0.14,0.37,2.97,530.79,689.38,0,16,1
11.05,0.64,-0.41,-0.03,0.39,2.62,398.59,480.07,0,16,1
11.91,-0.70,-1.44,-0.25,0.56,1.74,336.15,377.10,0,16,1
14.57,-1.54,-0.38,-0.34,0.19,0.99,324.16,380.76,0,16,1
9.82,-1.40,0.90,-0.10,0.04,-0.17,0.00,349.59,0,16,1
10.35,-1.42,0.03,0.08,0.01,0.00,326.73,419.53,0,16,1
9.69,-1.13,-0.31,-0.02,-0.02,-0.09,0.00,311.13,0,16,1
10.00,-1.05,-0.40,-0.16,0.09,-0.02,0.00,0.00,0,16,1
10.04,-1.12,0.13,-0.18,0.13,-0.01,0.00,0.00,0,16,1
10.02,-1.06,0.07,-0.09,0.06,-0.01,0.00,0.00,0,16,1
9.96,-0.90,-0.16,-0.08,0.05,-0.07,0.00,448.75,0,16,1
10.16,-0.84,-0.09,-0.12,0.08,-0.02,0.00,0.00,0,16,1
10.38,-0.99,0.21,-0.11,0.05,-0.05,0.00,0.00,0,16,1
10.15,-0.83,0.12,-0.06,0.02,-0.03,0.00,0.00,0,16,1
10.53,-0.83,0.08,-0.09,0.02,-0.04,0.00,333.54,0,16,1
12.38,-0.69,0.25,-0.11,0.31,-0.68,408.73,542.21,0,16,1
10.81,-0.09,1.19,0.10,0.35,-1.58,410.50,618.28,0,16,1
10.46,1.90,-0.52,-0.15,0.15,-2.14,583.05,852.84,0,16,1
10.22,3.05,-0.80,-0.61,0.14,-2.72,525.69,661.18,0,16,1
8.17,4.74,-0.44,-0.78,-0.60,-3.18,765.82,1057.13,0,16,1
7.02,7.29,-1.03,-1.15,-0.89,-3.17,957.04,1303.02,0,16,1
1.00,6.95,1.09,-1.46,-0.86,-2.81,1120.46,1422.98,1,16,1
-5.04,8.57,4.36,0.14,0.25,0.22,665.67,797.64,0,17,1
-5.37,7.32,3.65,0.59,1.05,1.47,620.72,731.05,0,17,1
-2.44,7.36,2.06,1.07,1.22,2.33,457.50,565.83,0,17,1
-0.84,7.05,0.85,1.09,0.32,3.04,451.59,533.00,0,17,1
4.34,7.48,-1.79,0.68,0.28,3.17,520.92,703.56,0,17,1
7.66,4.89,-1.80,0.13,0.23,2.93,479.09,564.54,0,17,1
9.36,3.11,-1.19,0.05,0.18,2.73,351.51,394.30,0,17,1
10.41,0.80,-1.12,-0.14,0.47,2.44,358.25,410.26,0,17,1
11.84,-1.01,-0.95,-0.22,0.61,1.98,0.00,345.19,0,17,1
15.35,-1.80,-0.35,-0.28,0.77,0.32,315.77,421.22,0,17,1
8.20,-0.42,0.86,0.01,0.09,-0.21,0.00,372.85,0,17,1
10.77,-0.80,-0.14,0.05,0.04,-0.07,0.00,0.00,0,17,1
10.03,-0.39,-0.04,-0.02,-0.07,-0.16,0.00,0.00,0,17,1
10.23,-0.44,0.12,-0.10,0.14,-0.03,0.00,0.00,0,17,1
10.18,-0.28,0.21,-0.10,0.08,-0.06,0.00,0.00,0,17,1
10.06,-0.20,0.23,-0.08,0.04,-0.01,0.00,0.00,0,17,1
10.33,-0.39,0.28,-0.06,0.01,-0.05,0.00,0.00,0,17,1
10.93,-0.19,0.31,-0.04,-0.03,-0.20,0.00,328.00,0,17,1
10.91,0.31,-0.02,-0.12,0.04,-0.46,0.00,455.45,0,17,1
10.81,0.71,0.19,-0.13,0.35,-0.74,310.26,418.50,0,17,1
10.59,1.44,0.21,-0.14,-0.01,-0.94,378.58,518.71,0,17,1
10.03,2.38,0.40,-0.22,0.15,-1.22,426.53,608.14,0,17,1
9.91,3.44,-0.13,-0.25,-0.09,-1.38,594.73,846.08,0,17,1
9.33,4.76,0.34,-0.35,-0.18,-1.75,467.33,637.64,0,17,1
8.19,5.66,0.35,-0.46,-0.09,-2.17,643.31,911.86,0,17,1
6.69,6.42,0.16,-0.56,-0.10,-2.64,595.83,778.73,0,17,1
1.87,8.07,1.50,-0.64,-0.42,-2.61,1009.34,1309.40,0,17,1
-0.06,7.27,1.54,-1.02,-0.70,-2.58,963.10,1272.27,0,17,1
-3.00,6.60,2.80,-0.81,-0.11,-2.32,949.62,1186.43,0,17,1
-4.93,8.02,3.68,-0.50,-0.43,-1.21,1104.57,1394.17,0,17,1
-4.36,8.56,3.64,-0.24,-0.18,-0.43,1153.39,1427.80,1,17,1
-5.26,7.59,2.94,0.69,1.60,2.11,862.01,925.70,0,18,1
-2.09,7.91,1.33,0.91,1.06,3.20,473.20,562.39,0,18,1
3.10,7.73,-0.09,0.79,0.21,3.48,523.07,600.56,0,18,1
6.13,5.98,-0.50,0.52,-0.08,3.21,460.12,576.01,0,18,1
8.80,3.70,-1.06,0.28,0.46,2.88,405.44,504.79,0,18,1
11.72,2.28,-1.24,-0.08,0.31,2.17,423.95,499.69,0,18,1
10.56,1.26,-0.45,-0.37,0.29,1.55,326.61,369.31,0,18,1
11.41,-0.08,0.40,-0.35,0.22,1.14,351.59,416.62,0,18,1
13.04,-0.60,0.23,-0.06,0.20,0.22,0.00,0.00,0,18,1
9.59,-0.03,0.42,0.06,0.10,-0.13,0.00,0.00,0,18,1
10.76,0.03,-0.26,-0.08,0.07,-0.07,0.00,315.63,0,18,1
9.95,-0.08,0.39,-0.11,0.10,-0.02,0.00,0.00,0,18,1
10.20,-0.14,0.30,-0.07,0.10,-0.03,0.00,0.00,0,18,1
10.01,0.08,0.19,-0.05,0.07,-0.05,0.00,0.00,0,18,1
10.16,0.19,0.06,-0.04,0.07,-0.02,0.00,0.00,0,18,1
10.65,0.06,0.45,-0.08,0.00,-0.12,0.00,356.90,0,18,1
10.84,0.36,0.31,-0.08,0.16,-0.38,0.00,437.72,0,18,1
10.68,0.99,-0.05,-0.16,0.00,-0.54,358.79,608.92,0,18,1
10.44,1.43,0.49,-0.18,-0.02,-0.77,376.13,520.29,0,18,1
10.47,2.20,0.14,-0.21,0.31,-1.12,0.00,0.00,0,18,1
9.48,3.11,0.55,-0.24,-0.01,-1.23,349.12,455.48,0,18,1
9.67,4.40,0.26,-0.28,-0.04,-1.39,388.15,500.33,0,18,1
9.59,5.41,0.12,-0.40,-0.09,-1.88,677.85,890.92,0,18,1
8.13,6.97,0.28,-0.46,-0.35,-2.40,524.89,750.28,0,18,1
3.50,7.41,1.16,-0.72,-1.08,-2.90,914.14,1293.52,0,18,1
3.27,7.67,1.20,-0.86,-1.06,-2.57,1159.45,1473.27,1,18,1
-5.09,8.26,3.61,-0.22,-0.37,-0.31,918.47,1194.02,0,19,1
-4.40,8.53,3.53,0.02,0.07,0.28,674.23,776.52,0,19,1
-6.14,7.58,3.55,0.52,0.41,1.85,450.59,522.78,0,19,1
-2.11,6.23,2.81,1.11,0.44,3.04,493.35,660.25,0,19,1
3.06,7.41,0.31,1.27,0.57,3.35,791.11,1056.90,0,19,1
6.05,7.47,-0.79,1.06,0.28,2.74,573.55,725.79,0,19,1
7.30,5.47,-1.22,0.62,1.04,2.51,524.17,608.57,0,19,1
10.81,3.89,-1.79,0.17,0.52,2.29,459.07,524.11,0,19,1
11.00,1.89,-1.03,-0.14,0.29,1.84,431.63,487.76,0,19,1
11.67,0.40,-0.17,-0.13,0.26,1.27,330.96,379.36,0,19,1
13.78,-0.03,-0.55,0.15,0.15,0.56,0.00,355.51,0,19,1
10.24,0.29,-0.79,0.01,-0.02,-0.15,0.00,321.95,0,19,1
11.22,-0.03,-0.50,-0.19,0.09,0.02,0.00,348.77,0,19,1
9.18,0.34,0.56,-0.17,0.37,-0.28,0.00,305.34,0,19,1
9.86,0.55,-0.13,-0.01,-0.03,0.04,0.00,0.00,0,19,1
10.38,0.53,-0.18,-0.13,0.00,-0.09,0.00,0.00,0,19,1
9.97,0.44,0.25,-0.14,0.08,-0.01,0.00,0.00,0,19,1
10.49,0.54,0.13,-0.01,-0.04,-0.10,0.00,0.00,0,19,1
9.74,0.76,-0.19,-0.09,0.03,-0.09,0.00,0.00,0,19,1
10.58,0.77,0.15,-0.07,-0.03,-0.05,0.00,0.00,0,19,1
11.14,1.07,-0.38,-0.14,0.02,-0.55,0.00,0.00,0,19,1
11.21,1.61,-0.61,-0.30,0.27,-0.96,330.28,464.14,0,19,1
10.54,2.74,-0.33,-0.30,0.17,-1.18,410.60,570.40,0,19,1
9.93,3.62,-0.15,-0.35,-0.04,-1.42,565.46,857.60,0,19,1
9.69,4.82,0.14,-0.46,-0.13,-1.91,590.93,849.69,0,19,1
7.47,6.11,0.55,-0.50,-0.14,-2.36,414.53,570.44,0,19,1
5.10,6.48,0.77,-0.64,-0.21,-2.70,988.60,1305.59,0,19,1
0.99,6.61,1.36,-0.78,-0.25,-2.70,726.75,918.86,0,19,1
-1.55,6.34,2.91,-0.99,-0.80,-2.66,935.06,1155.42,0,19,1
-2.85,7.20,3.16,-0.75,-0.36,-1.93,869.74,1142.13,0,19,1
-4.04,8.26,3.96,-0.40,-0.40,-0.93,1076.12,1381.01,0,19,1
-4.16,8.14,4.32,-0.20,-0.31,-0.51,1131.14,1364.08,0,19,1
-3.16,8.26,3.94,-0.00,0.13,0.17,1074.04,1290.94,0,19,1
-4.45,7.78,3.98,0.10,0.23,0.54,716.28,837.10,0,19,1
-4.63,7.57,3.84,0.52,0.79,1.70,446.31,536.73,0,19,1
-3.82,7.84,2.72,0.79,0.62,2.54,426.49,578.45,0,19,1
0.14,7.55,1.58,1.03,0.20,3.18,576.38,809.08,0,19,1
5.85,8.04,-0.78,0.73,0.28,3.14,543.29,697.72,0,19,1
7.37,4.92,-0.06,0.51,0.18,2.82,538.38,640.37,0,19,1
8.99,3.76,0.01,0.39,0.30,2.44,430.64,510.69,0,19,1
10.31,2.63,-0.62,0.22,0.23,1.97,405.91,463.94,0,19,1
10.54,1.71,-0.74,-0.07,0.26,1.37,385.91,447.39,0,19,1
11.96,0.31,-0.11,-0.17,0.21,0.95,0.00,335.46,0,19,1
11.96,-0.14,0.23,-0.06,0.15,0.17,0.00,0.00,0,19,1
10.05,0.28,0.04,-0.01,-0.08,-0.13,0.00,325.32,0,19,1
10.16,0.32,0.06,-0.10,0.01,-0.05,0.00,0.00,0,19,1
9.97,0.37,0.20,-0.16,0.07,-0.03,0.00,0.00,0,19,1
10.46,0.33,0.43,-0.06,0.03,-0.09,0.00,0.00,0,19,1
11.86,0.41,-0.12,-0.13,0.13,-0.47,341.36,488.00,0,19,1
11.00,1.15,0.66,-0.20,0.20,-1.00,449.38,667.78,0,19,1
10.64,1.98,-0.02,-0.32,0.54,-1.49,523.63,816.38,0,19,1
9.22,3.38,0.25,-0.35,-0.23,-1.60,581.16,756.17,0,19,1
9.70,4.70,0.49,-0.43,-0.20,-1.72,833.68,1212.57,0,19,1
7.84,5.79,1.02,-0.42,-0.19,-2.15,948.42,1209.56,0,19,1
4.59,6.96,1.21,-0.46,-0.30,-2.54,858.14,1099.24,0,19,1
-0.33,7.55,1.58,-0.70,-0.33,-2.30,1048.42,1318.84,0,19,1
1.47,9.29,1.37,-0.60,-0.01,-1.83,754.25,977.05,0,19,1
0.49,7.47,3.21,-0.99,-0.23,-2.16,853.99,1047.00,0,19,1
-4.03,7.17,4.22,-0.29,1.17,-1.45,949.85,1256.67,0,19,1
-4.49,8.33,3.32,-0.12,0.25,-0.38,800.79,1081.56,0,19,1
-5.16,8.15,3.55,-0.11,0.09,-0.20,828.39,976.88,0,19,1
-3.33,8.27,3.04,0.03,-0.05,0.36,560.78,660.49,0,19,1
-4.31,7.74,3.14,0.39,0.85,1.33,451.24,527.74,0,19,1
-4.00,8.27,2.22,0.64,0.95,2.34,431.20,541.26,0,19,1
0.11,8.49,1.13,0.62,0.63,2.92,551.42,712.82,0,19,1
4.11,8.33,0.82,0.45,1.08,2.63,534.64,753.67,0,19,1
6.19,6.44,0.39,0.46,0.20,2.40,443.96,529.43,0,19,1
8.31,5.29,-0.38,0.17,-0.08,2.38,467.23,544.02,0,19,1
10.66,3.96,-0.28,-0.08,0.09,1.92,396.06,462.81,0,19,1
10.32,2.57,-0.03,-0.14,0.04,1.28,340.90,389.02,0,19,1
9.81,1.28,0.19,-0.25,-0.01,1.31,309.54,348.32,0,19,1
12.78,0.32,0.31,-0.13,0.22,0.99,0.00,320.93,0,19,1
10.24,0.47,0.38,0.04,-0.07,-0.20,0.00,342.66,0,19,1
9.55,0.83,-0.14,-0.07,0.11,0.05,0.00,325.18,0,19,1
10.07,0.57,0.35,-0.14,0.07,-0.06,0.00,0.00,0,19,1
9.95,0.81,0.15,-0.09,0.02,-0.01,0.00,0.00,0,19,1
10.20,0.83,0.17,-0.09,-0.01,0.01,0.00,0.00,0,19,1
10.49,0.83,0.16,-0.11,-0.12,-0.11,0.00,352.94,0,19,1
11.54,1.09,-0.02,-0.24,-0.16,-0.62,0.00,524.68,0,19,1
11.87,1.82,-0.12,-0.23,-0.07,-1.27,517.56,756.91,0,19,1
11.04,2.85,-0.93,-0.45,-0.12,-2.06,556.14,846.44,0,19,1
10.28,4.75,-1.77,-0.94,-0.31,-2.70,755.39,1082.91,0,19,1
4.77,5.43,1.00,-1.05,-0.42,-2.85,451.50,526.89,0,19,1
3.70,7.23,0.72,-0.80,-0.18,-2.30,859.69,1170.52,0,19,1
2.30,7.69,1.49,-1.12,-0.39,-2.73,896.63,1162.61,0,19,1
-2.59,6.64,3.92,-0.97,-0.38,-2.23,864.40,1190.07,0,19,1
-4.48,6.51,4.45,-0.62,-0.24,-1.63,830.60,1080.26,0,19,1
-4.94,7.95,5.03,-0.27,0.33,-0.50,756.82,1006.21,0,19,1
-5.24,8.04,4.59,-0.16,-0.19,-0.02,895.75,1152.16,0,19,1
-2.98,8.11,4.36,0.04,0.33,0.40,724.74,909.74,0,19,1
-6.59,7.52,4.53,0.43,0.86,1.30,470.44,534.74,0,19,1
-4.19,8.01,3.49,0.76,1.30,2.17,376.37,469.64,0,19,1
-1.98,7.50,2.56,0.93,1.05,2.91,831.02,1136.90,0,19,1
3.66,7.67,0.91,0.99,0.59,3.09,594.27,806.90,0,19,1
6.82,6.37,-0.03,0.96,0.42,2.68,469.30,567.92,0,19,1
9.32,5.48,-1.47,0.39,0.81,2.34,441.56,529.05,0,19,1
11.43,4.14,-0.02,0.03,0.43,1.66,428.28,486.21,0,19,1
9.74,3.38,-0.05,0.16,0.21,1.09,366.81,408.58,0,19,1
9.07,2.38,0.14,-0.04,0.16,1.11,313.40,341.74,0,19,1
11.18,1.07,0.43,-0.15,0.32,1.01,0.00,319.38,0,19,1
12.19,0.69,0.01,-0.07,0.27,0.35,0.00,0.00,0,19,1
10.20,0.83,0.39,-0.14,-0.02,-0.17,0.00,338.07,0,19,1
10.08,0.83,0.79,-0.07,-0.06,0.07,0.00,0.00,0,19,1
10.01,0.84,0.53,-0.06,-0.08,-0.09,0.00,0.00,0,19,1
10.26,0.99,0.29,-0.07,-0.07,0.01,0.00,0.00,0,19,1
10.64,1.03,0.44,-0.08,-0.08,-0.12,0.00,0.00,0,19,1
10.57,1.24,0.20,-0.11,-0.03,-0.28,0.00,404.41,0,19,1
12.26,1.74,-0.32,-0.20,-0.09,-0.91,341.35,547.64,0,19,1
10.84,2.64,-0.14,-0.34,-0.09,-1.35,441.01,619.08,0,19,1
9.44,3.73,-0.10,-0.46,-0.05,-1.57,364.42,471.24,0,19,1
10.33,5.13,-0.61,-0.76,-0.21,-2.03,507.18,695.68,0,19,1
7.20,6.20,0.06,-1.20,-0.96,-2.87,534.05,744.61,0,19,1
6.06,7.53,-0.06,-1.53,-1.26,-3.23,912.96,1253.57,0,19,1
0.66,5.32,2.89,-1.68,-0.91,-3.24,903.81,1205.64,0,19,1
-2.46,6.98,3.86,-1.09,-0.38,-2.08,1013.58,1264.55,0,19,1
-2.83,8.02,5.46,-0.70,-0.61,-0.92,1061.31,1371.96,0,19,1
-4.43,6.99,6.39,-0.24,-0.23,-0.25,1229.28,1485.95,1,19,1
-4.16,7.46,4.04,0.93,0.91,1.95,971.98,1113.80,0,20,1
-2.17,7.39,2.40,1.36,1.56,2.39,979.88,1225.98,0,20,1
1.55,7.09,0.70,1.16,0.65,2.85,787.08,899.78,0,20,1
4.80,6.95,-0.48,0.68,0.45,2.78,649.07,760.44,0,20,1
7.33,5.87,-0.85,0.32,0.42,2.55,509.10,589.53,0,20,1
10.33,4.59,-0.63,0.04,0.30,2.02,541.76,666.28,0,20,1
10.10,3.43,-0.47,0.01,0.40,1.61,426.51,490.20,0,20,1
10.15,1.90,-0.18,-0.05,0.22,1.53,307.54,346.02,0,20,1
11.87,0.78,0.01,-0.12,0.49,1.03,0.00,304.27,0,20,1
12.02,0.41,0.70,-0.01,0.20,0.41,0.00,0.00,0,20,1
10.13,0.58,0.46,-0.04,-0.04,-0.12,0.00,357.22,0,20,1
10.38,0.62,0.23,-0.09,0.01,-0.04,0.00,0.00,0,20,1
10.17,0.71,0.57,-0.09,-0.07,-0.12,0.00,0.00,0,20,1
10.16,0.97,0.43,-0.06,-0.07,-0.07,0.00,0.00,0,20,1
10.19,1.03,0.34,-0.11,0.03,-0.21,0.00,426.24,0,20,1
10.21,1.28,0.44,-0.16,0.07,-0.33,0.00,0.00,0,20,1
11.30,1.48,0.38,-0.09,-0.19,-0.52,334.69,518.37,0,20,1
11.51,2.17,-0.30,-0.27,-0.13,-1.30,490.25,804.36,0,20,1
9.61,3.26,-0.18,-0.47,0.03,-1.76,0.00,340.06,0,20,1
9.55,4.85,-0.51,-0.75,-0.27,-1.99,418.48,550.73,0,20,1
8.08,5.48,0.96,-1.02,-0.37,-2.60,753.80,1206.11,0,20,1
3.91,7.42,0.87,-1.19,-1.21,-2.59,652.51,988.25,0,20,1
3.67,7.57,1.87,-1.77,-1.48,-2.14,862.51,1153.05,0,20,1
0.51,7.39,4.07,-1.17,-0.19,-2.18,828.30,1112.92,0,20,1
-4.33,6.01,4.98,-0.81,-0.16,-1.52,1105.50,1369.25,0,20,1
-1.62,7.70,5.19,-0.68,-0.45,-0.84,1067.75,1385.91,0,20,1
-2.86,6.85,5.46,-0.39,0.09,-0.50,1113.29,1411.18,1,20,1
-2.84,7.80,5.66,0.92,1.64,1.58,1227.68,1449.33,1,20,1
-3.15,7.99,4.04,1.30,1.75,1.95,1066.50,1315.00,0,21,1
-1.08,7.62,1.87,1.32,1.13,2.24,867.78,1063.18,0,21,1
2.40,8.03,0.18,1.23,0.62,2.46,795.98,910.30,0,21,1
5.44,7.96,-1.03,0.91,0.36,2.42,605.22,691.12,0,21,1
7.68,6.18,-1.33,0.54,0.29,2.36,502.82,607.95,0,21,1
10.19,4.50,-0.94,0.11,0.91,1.86,486.25,583.81,0,21,1
10.65,3.33,-1.27,-0.04,0.19,1.53,413.31,468.81,0,21,1
8.87,1.97,0.35,-0.27,0.75,1.54,310.59,351.04,0,21,1
14.00,0.71,0.12,-0.16,0.52,0.76,0.00,346.90,0,21,1
10.48,1.17,0.78,-0.02,0.01,-0.16,0.00,300.20,0,21,1
9.88,1.20,0.19,-0.04,-0.04,0.01,0.00,0.00,0,21,1
10.11,1.09,0.54,-0.12,0.06,-0.03,0.00,0.00,0,21,1
10.23,1.32,0.60,-0.07,-0.01,-0.03,0.00,0.00,0,21,1
11.36,1.43,0.00,-0.06,-0.22,-0.46,304.47,428.95,0,21,1
10.66,2.05,-0.12,-0.21,-0.01,-0.82,351.47,493.77,0,21,1
10.84,2.76,-0.03,-0.34,0.14,-1.31,0.00,356.68,0,21,1
9.67,3.77,-0.04,-0.48,-0.07,-1.68,424.43,572.17,0,21,1
9.05,5.20,-0.19,-0.71,-0.33,-1.88,418.19,572.32,0,21,1
6.51,6.39,0.34,-0.93,-0.49,-2.20,507.31,692.32,0,21,1
4.58,7.07,0.94,-0.92,-0.79,-2.03,594.24,884.74,0,21,1
4.82,9.00,1.17,-1.22,-1.01,-2.08,642.40,901.20,0,21,1
-0.52,5.65,3.67,-1.47,-0.34,-2.31,666.80,864.90,0,21,1
0.19,8.56,3.00,-1.13,-0.63,-1.51,771.99,1068.72,0,21,1
-2.18,7.59,5.17,-0.75,-0.04,-1.08,795.51,1109.79,0,21,1
-2.47,6.83,4.62,-0.52,-0.10,-0.61,1228.82,1550.77,1,21,1
-5.69,7.10,6.60,0.53,0.85,1.10,912.06,1184.63,0,22,1
-2.97,7.88,4.85,0.73,2.29,1.12,1418.19,1641.13,1,22,1
-2.52,7.16,3.45,1.22,1.67,2.62,1023.53,1193.44,0,23,1
1.74,7.48,1.78,1.24,0.88,3.02,982.22,1123.18,0,23,1
5.04,7.58,1.30,0.65,1.33,2.82,848.82,1001.29,0,23,1
8.07,5.67,0.29,0.31,0.21,2.68,773.50,908.29,0,23,1
9.55,3.52,0.95,0.18,0.10,2.34,510.07,605.32,0,23,1
10.82,2.26,0.36,0.09,0.12,1.64,547.61,596.40,0,23,1
10.57,1.86,0.63,0.02,0.01,1.26,387.75,441.97,0,23,1
11.48,1.24,0.68,-0.08,0.22,0.54,357.58,437.88,0,23,1
10.89,1.18,0.50,-0.05,0.05,0.11,0.00,335.49,0,23,1
10.32,1.08,0.37,-0.03,0.01,-0.12,0.00,0.00,0,23,1
10.19,1.17,0.79,-0.10,-0.09,-0.07,0.00,0.00,0,23,1
10.97,1.40,0.53,-0.11,-0.28,-0.32,0.00,326.81,0,23,1
11.40,1.88,-0.15,-0.28,-0.09,-0.94,319.45,439.47,0,23,1
10.45,2.88,0.35,-0.39,-0.07,-1.30,524.48,760.09,0,23,1
9.47,3.87,0.44,-0.42,-0.11,-1.63,698.22,1051.05,0,23,1
8.88,5.11,0.28,-0.63,-0.20,-1.94,578.62,794.42,0,23,1
8.47,6.63,0.38,-0.74,-0.65,-2.21,724.14,1115.02,0,23,1
4.33,6.33,0.94,-1.06,-0.82,-2.93,873.32,1101.64,0,23,1
-0.67,5.88,2.30,-1.20,-0.65,-2.66,908.96,1205.17,0,23,1
-0.78,8.33,2.93,-1.06,-0.52,-1.87,834.86,1130.16,0,23,1
-0.79,8.19,4.56,-0.87,-0.45,-1.76,927.81,1199.46,0,23,1
-1.64,7.69,3.36,-0.63,-0.28,-1.04,1070.02,1398.01,0,23,1
-4.07,7.41,5.49,-0.45,0.05,-0.63,1132.80,1416.90,1,23,1
-2.42,7.33,3.92,1.33,1.23,1.83,676.97,768.78,0,24,1
-0.46,8.10,1.50,1.39,0.79,2.37,627.45,718.79,0,24,1
1.41,8.63,-0.50,0.99,1.01,2.57,560.56,683.02,0,24,1
3.81,7.30,-0.04,0.74,0.10,2.62,553.73,652.19,0,24,1
6.18,5.75,-0.52,0.59,0.62,2.77,497.47,606.03,0,24,1
9.61,4.27,-0.92,0.27,0.47,2.41,405.74,490.33,0,24,1
9.58,2.89,-0.19,0.13,0.63,1.94,499.66,525.29,0,24,1
11.23,1.39,-0.94,-0.09,0.51,1.62,308.50,341.48,0,24,1
13.90,0.54,0.28,-0.20,0.34,0.66,357.30,469.94,0,24,1
9.43,0.94,0.53,-0.03,-0.11,-0.18,0.00,365.39,0,24,1
9.90,0.91,0.42,-0.03,0.02,0.05,0.00,0.00,0,24,1
10.15,0.93,0.54,-0.10,0.04,-0.08,0.00,0.00,0,24,1
10.45,1.18,0.31,-0.14,-0.05,-0.16,0.00,0.00,0,24,1
10.38,1.35,0.15,-0.14,-0.05,-0.23,0.00,386.29,0,24,1
10.16,1.50,0.20,-0.20,-0.11,-0.37,0.00,449.13,0,24,1
10.16,1.99,0.45,-0.14,-0.05,-0.44,340.76,477.79,0,24,1
11.64,1.51,-0.03,-0.18,-0.38,-1.18,458.00,754.16,0,24,1
11.26,3.97,-0.56,-0.19,-0.84,-1.41,863.18,1321.24,0,24,1
8.38,4.73,-0.80,-0.70,0.12,-2.17,578.14,741.17,0,24,1
7.49,5.35,0.82,-0.85,-0.04,-2.16,481.09,598.38,0,24,1
6.09,6.80,1.75,-0.70,0.15,-2.24,533.08,691.82,0,24,1
3.89,8.91,0.85,-0.84,-0.73,-2.30,952.11,1345.03,0,24,1
-1.78,5.30,3.23,-1.09,-0.46,-2.75,1099.89,1370.07,0,24,1
-2.87,6.89,4.62,-1.18,-0.69,-1.89,1015.58,1301.00,0,24,1
0.50,8.72,4.65,-0.60,-0.69,-1.17,1207.94,1483.18,1,24,1
-2.44,7.30,5.26,0.80,1.14,1.24,857.14,1035.90,0,25,1
-2.58,7.65,3.94,1.14,1.23,2.04,1477.39,1726.52,1,25,1
-0.73,7.65,2.59,1.31,0.63,2.68,1370.90,1587.65,1,25,1
3.27,7.63,0.08,1.11,0.25,2.75,1190.80,1371.91,0,26,1
5.99,6.82,-0.69,0.78,0.13,2.73,841.97,961.86,0,26,1
8.98,5.38,-1.05,0.44,0.32,2.33,720.75,839.42,0,26,1
9.34,4.07,-0.44,0.30,0.27,1.74,609.12,709.00,0,26,1
10.42,3.25,-0.78,0.22,0.14,1.31,496.37,627.35,0,26,1
10.53,2.66,-0.97,0.10,0.28,0.88,475.15,556.69,0,26,1
10.03,1.88,-0.29,0.01,0.25,0.80,448.43,556.07,0,26,1
10.18,1.33,0.32,-0.01,0.39,0.72,468.32,564.29,0,26,1
11.01,1.10,0.22,-0.10,0.20,0.03,408.56,539.08,0,26,1
10.30,1.19,0.47,-0.08,0.01,-0.07,384.66,453.56,0,26,1
10.22,1.35,0.32,-0.03,-0.02,-0.09,353.58,436.99,0,26,1
10.22,1.44,0.21,-0.12,0.02,-0.15,371.43,484.30,0,26,1
12.90,1.66,-0.16,-0.16,-0.35,-0.67,421.63,582.06,0,26,1
11.69,2.60,-0.32,-0.37,-0.28,-1.41,652.77,1031.84,0,26,1
10.88,3.56,-0.13,-0.60,-0.13,-2.05,579.89,782.21,0,26,1
9.03,5.06,-0.27,-0.73,-0.32,-2.46,737.28,979.78,0,26,1
6.17,5.55,-0.17,-1.00,0.08,-2.76,525.64,602.32,0,26,1
2.62,5.43,2.00,-1.12,-0.30,-2.77,523.78,666.15,0,26,1
-1.29,7.53,3.23,-1.09,-0.88,-2.10,613.44,840.97,0,26,1
0.75,8.01,1.24,-1.10,-0.00,-2.15,776.87,1092.18,0,26,1
-3.46,8.41,4.35,-0.63,0.01,-1.32,790.73,1090.20,0,26,1
-4.34,7.35,5.08,-0.52,-0.60,-0.76,1042.26,1334.77,0,26,1
-6.72,7.42,5.87,-0.23,0.48,-0.26,1228.87,1488.19,1,26,1
-2.62,7.09,3.41,1.18,0.39,2.36,709.08,795.85,0,27,1
-0.01,7.32,1.79,1.43,0.76,2.71,1249.38,1577.22,1,27,1
3.73,7.43,-0.76,1.03,0.22,2.61,858.45,1080.13,0,28,1
5.77,6.29,-1.04,0.57,0.19,2.60,723.81,873.19,0,28,1
9.22,5.38,-1.69,0.48,0.32,2.32,645.79,711.27,0,28,1
10.64,4.18,-1.30,0.21,0.38,1.78,465.95,550.32,0,28,1
10.18,3.30,-0.83,0.05,0.42,1.35,487.73,554.83,0,28,1
9.99,2.01,-0.07,0.01,0.44,1.23,365.16,448.37,0,28,1
11.57,1.12,0.18,-0.05,0.62,0.85,396.97,456.25,0,28,1
11.26,0.78,0.57,-0.14,0.30,0.06,317.31,362.64,0,28,1
9.94,1.00,0.62,-0.11,0.13,-0.07,304.18,358.19,0,28,1
10.41,0.94,0.55,-0.07,0.07,-0.02,0.00,0.00,0,28,1
10.38,1.09,0.57,-0.15,-0.13,-0.14,0.00,0.00,0,28,1
10.89,1.26,0.77,-0.16,-0.06,-0.29,0.00,310.27,0,28,1
12.22,1.88,0.41,-0.22,0.48,-0.89,424.48,633.41,0,28,1
10.47,2.47,0.73,-0.26,-0.03,-1.41,329.48,433.74,0,28,1
9.37,3.32,0.92,-0.37,-0.09,-1.71,364.93,467.63,0,28,1
8.72,4.89,0.36,-0.60,-0.36,-1.90,325.07,395.74,0,28,1
6.77,5.87,1.16,-0.76,-0.64,-2.04,383.31,504.02,0,28,1
5.93,6.87,1.25,-0.84,-0.81,-2.14,413.25,537.65,0,28,1
2.45,7.97,1.61,-1.08,-0.79,-2.16,637.28,903.37,0,28,1
2.06,8.71,1.96,-1.07,-0.67,-2.18,902.48,1235.87,0,28,1
0.07,5.89,4.40,-1.08,-0.09,-2.12,762.20,1073.02,0,28,1
-3.02,6.46,4.46,-0.93,0.15,-1.62,992.55,1274.44,0,28,1
-3.62,7.12,6.79,-0.50,-0.43,-0.43,1089.35,1376.54,0,28,1
-6.50,6.70,6.83,-0.08,0.56,-0.04,906.89,1148.17,0,28,1
-3.52,7.77,5.31,0.22,0.59,0.25,709.22,876.61,0,28,1
-3.08,7.19,4.81,1.06,1.26,1.71,533.40,625.21,0,28,1
-0.79,8.15,2.89,1.29,1.01,2.12,883.05,1270.24,0,28,1
0.55,7.91,1.19,0.94,0.29,2.57,882.22,1158.06,0,28,1
2.61,7.79,1.03,0.75,0.88,2.75,676.90,825.35,0,28,1
6.67,7.02,-0.50,0.69,0.11,2.76,657.77,736.59,0,28,1
9.47,4.90,-0.45,0.41,0.16,2.38,573.10,679.50,0,28,1
9.91,3.78,-0.33,0.17,0.49,1.88,539.23,683.63,0,28,1
10.49,2.53,0.36,-0.01,0.08,1.63,411.20,483.51,0,28,1
11.80,1.23,0.58,0.06,0.31,1.15,482.65,587.66,0,28,1
12.00,0.79,0.73,-0.05,0.31,0.39,469.44,571.88,0,28,1
10.05,1.24,0.80,-0.11,0.16,-0.09,543.98,644.06,0,28,1
9.84,1.08,1.35,-0.06,0.07,0.02,473.94,587.24,0,28,1
10.28,0.97,1.08,-0.01,0.01,-0.10,443.61,573.30,0,28,1
10.09,1.31,0.67,-0.05,-0.02,-0.17,480.11,621.23,0,28,1
10.56,1.52,0.91,-0.15,-0.05,-0.40,575.72,670.49,0,28,1
12.15,2.07,0.19,-0.17,-0.13,-0.91,549.46,685.99,0,28,1
11.61,3.13,-0.30,-0.43,0.17,-1.63,593.89,731.70,0,28,1
9.79,3.77,0.18,-0.73,0.01,-2.23,665.81,802.34,0,28,1
7.75,4.51,1.14,-0.92,-0.00,-2.54,580.91,679.29,0,28,1
3.81,6.41,1.43,-0.83,-0.11,-2.50,938.62,1237.96,0,28,1
0.89,4.27,3.59,-1.14,-0.14,-3.10,917.66,1144.82,0,28,1
-1.03,8.27,2.92,-0.97,-0.68,-2.31,797.49,997.06,0,28,1
-2.07,7.31,4.71,-0.76,-0.15,-1.84,945.18,1116.24,0,28,1
-3.13,7.25,4.80,-0.63,-0.12,-1.26,1277.64,1526.48,1,28,1
-5.67,6.57,5.94,0.42,0.81,0.94,889.28,944.77,0,29,1
-4.17,6.27,5.49,0.85,1.52,1.33,604.49,651.28,0,29,1
-2.43,6.63,2.99,1.18,0.88,2.58,397.80,470.27,0,29,1
-0.04,7.63,1.40,0.94,0.33,3.03,1532.27,1935.28,1,29,1
4.02,7.09,0.41,0.58,0.72,3.12,722.32,866.85,0,30,1
8.69,6.79,-0.42,0.19,0.14,2.70,581.77,668.48,0,30,1
9.91,4.87,0.34,0.08,0.47,1.88,496.76,586.81,0,30,1
9.63,4.08,1.00,-0.01,-0.17,1.50,494.05,572.39,0,30,1
9.56,3.50,1.33,0.06,0.15,0.98,431.85,516.70,0,30,1
8.27,2.89,0.95,0.01,0.21,0.94,374.00,438.71,0,30,1
11.04,1.48,0.70,0.10,0.02,1.16,347.66,422.33,0,30,1
12.34,1.09,0.68,-0.00,0.12,0.44,463.15,553.20,0,30,1
10.13,1.21,1.13,-0.07,-0.03,0.07,409.34,513.19,0,30,1
9.94,0.88,1.17,-0.08,0.06,0.00,416.93,518.68,0,30,1
10.02,1.15,0.99,-0.03,-0.01,-0.04,389.80,474.73,0,30,1
10.23,1.17,1.13,-0.09,0.03,-0.08,423.65,537.25,0,30,1
11.31,1.39,0.87,-0.13,-0.09,-0.39,454.59,597.91,0,30,1
11.76,1.64,0.93,-0.20,0.22,-0.96,492.29,647.70,0,30,1
11.07,2.52,0.87,-0.27,0.16,-1.60,448.59,540.37,0,30,1
10.14,4.06,0.26,-0.45,-0.21,-2.08,528.79,650.05,0,30,1
7.70,5.27,0.63,-0.67,-0.15,-2.49,475.99,600.92,0,30,1
6.58,7.25,1.75,-0.95,-1.08,-2.77,504.00,633.82,0,30,1
0.62,7.58,2.37,-0.99,-1.43,-2.86,535.84,719.46,0,30,1
0.51,7.60,2.43,-1.09,-0.84,-2.59,1105.33,1476.32,1,30,1
-4.45,6.80,6.17,-0.22,-0.49,-0.37,925.20,1128.92,0,31,1
-2.42,7.26,5.72,0.17,-0.22,0.34,707.52,791.55,0,31,1
-2.18,6.72,4.06,0.85,1.33,1.11,540.60,613.64,0,31,1
-1.75,6.42,2.69,0.78,-0.01,2.31,369.40,533.16,0,31,1
-1.37,8.82,1.12,1.01,1.14,2.68,1537.72,1991.64,1,31,1
2.43,8.27,0.50,0.63,0.92,2.96,1252.74,1528.49,1,31,1
6.07,6.79,0.18,0.38,0.32,2.92,702.61,813.73,0,32,1
8.84,5.36,0.21,0.42,0.40,2.58,615.31,691.03,0,32,1
10.53,3.47,0.33,0.13,0.38,1.89,593.20,692.77,0,32,1
10.04,2.84,0.52,-0.12,0.32,1.30,495.76,600.90,0,32,1
11.40,2.03,0.87,-0.05,0.06,0.93,460.83,553.42,0,32,1
11.59,1.74,0.57,0.03,0.09,0.15,443.21,523.29,0,32,1
9.66,1.87,0.73,-0.11,0.01,-0.06,430.64,547.29,0,32,1
9.89,1.97,1.35,-0.08,0.05,-0.05,406.71,508.11,0,32,1
10.16,2.03,1.01,-0.05,-0.04,-0.12,445.50,540.34,0,32,1
10.71,2.23,0.65,-0.15,-0.16,-0.45,509.18,678.34,0,32,1
11.08,2.83,0.40,-0.24,0.13,-0.94,597.29,728.42,0,32,1
10.10,3.87,0.49,-0.38,-0.23,-1.25,632.97,807.10,0,32,1
9.14,4.52,0.69,-0.46,-0.09,-1.59,542.23,650.69,0,32,1
8.31,5.60,1.24,-0.66,-0.31,-1.93,587.68,706.43,0,32,1
6.09,6.54,1.27,-0.67,-0.65,-2.10,578.76,775.71,0,32,1
4.11,8.27,1.07,-0.84,-0.93,-2.22,703.25,902.90,0,32,1
3.54,8.21,1.78,-0.92,-0.96,-1.98,690.37,858.85,0,32,1
-1.39,6.64,4.21,-1.31,-0.06,-2.35,856.60,1149.08,0,32,1
-2.70,7.61,4.45,-0.94,-0.49,-1.68,848.53,1064.13,0,32,1
-3.24,4.79,5.10,-0.78,0.01,-1.45,869.48,1092.13,0,32,1
-5.45,6.81,6.62,-0.31,0.64,-0.34,1040.04,1295.21,0,32,1
-6.30,5.88,6.93,0.05,0.07,0.18,922.27,1134.27,0,32,1
-4.11,6.89,6.34,0.35,0.29,0.59,626.55,709.02,0,32,1
-5.34,6.72,5.57,0.76,1.29,0.97,483.05,561.20,0,32,1
-2.38,7.26,4.19,1.16,1.38,1.75,364.54,435.43,0,32,1
-0.92,7.82,1.83,1.03,1.09,2.43,500.84,642.96,0,32,1
1.10,7.93,1.12,0.82,0.25,2.77,1015.23,1430.56,1,32,1
8.44,5.31,-0.28,0.19,0.63,1.86,495.20,589.90,0,33,1
9.66,4.40,0.05,0.00,0.46,1.42,490.11,604.06,0,33,1
9.78,3.37,0.87,0.00,0.39,1.20,470.82,553.93,0,33,1
11.50,2.43,0.78,0.02,0.20,0.83,429.07,503.15,0,33,1
10.61,2.16,0.82,-0.05,0.20,0.18,446.27,555.45,0,33,1
9.46,2.22,1.04,-0.03,0.10,0.13,453.08,566.14,0,33,1
10.24,2.01,0.57,-0.07,0.06,0.01,431.87,530.01,0,33,1
10.05,2.06,0.59,-0.08,-0.08,-0.03,454.45,558.21,0,33,1
9.77,2.06,0.83,-0.02,-0.12,0.04,445.53,531.76,0,33,1
9.72,2.09,0.64,-0.03,-0.12,-0.04,441.67,531.60,0,33,1
9.83,2.11,0.74,-0.12,0.04,-0.06,535.63,726.90,0,33,1
9.77,2.42,0.68,-0.09,0.03,-0.23,474.23,558.16,0,33,1
11.01,2.53,0.35,-0.11,-0.14,-0.44,540.44,712.68,0,33,1
13.65,3.18,-1.03,-0.32,0.13,-1.73,509.28,599.76,0,33,1
10.05,4.09,-1.06,-0.89,0.04,-2.68,592.71,724.23,0,33,1
5.66,5.12,1.37,-0.97,0.32,-2.77,664.51,791.45,0,33,1
3.05,7.58,1.72,-0.93,-0.67,-2.78,602.29,705.22,0,33,1
0.75,7.00,3.33,-1.16,-1.29,-2.57,599.42,812.71,0,33,1
0.60,6.30,4.20,-1.12,-0.53,-2.33,868.70,1146.71,0,33,1
-2.23,6.55,4.02,-0.72,-0.84,-1.80,1061.17,1406.45,1,33,1
-3.44,7.15,5.46,0.37,0.60,0.60,784.49,844.18,0,34,1
-2.91,7.43,4.11,0.82,1.15,1.29,560.74,602.50,0,34,1
-3.00,6.91,3.04,1.19,0.89,2.15,335.63,393.21,0,34,1
-1.00,8.49,0.89,1.36,0.89,2.53,570.03,825.72,0,34,1
1.96,8.49,-1.19,0.86,0.16,3.09,607.42,839.90,0,34,1
5.64,6.38,-0.33,0.72,0.20,3.14,456.71,535.84,0,34,1
9.84,4.84,-2.09,0.41,0.55,2.68,446.60,545.95,0,34,1
11.11,3.74,-2.19,-0.25,0.39,1.88,385.01,478.62,0,34,1
10.87,2.78,-0.47,-0.57,0.67,1.19,396.45,478.47,0,34,1
8.45,1.78,1.40,-0.55,0.97,1.12,397.83,480.38,0,34,1
12.46,0.14,1.22,-0.09,0.54,0.66,455.80,535.66,0,34,1
8.97,1.12,0.95,-0.02,0.12,-0.13,478.12,606.85,0,34,1
10.74,0.83,1.41,-0.05,-0.02,0.03,386.62,459.91,0,34,1
9.84,1.08,0.87,-0.03,0.02,-0.03,344.39,436.41,0,34,1
10.39,0.88,0.95,-0.05,-0.17,0.01,408.11,519.19,0,34,1
10.04,1.20,0.79,-0.11,-0.21,-0.09,335.93,396.34,0,34,1
12.11,1.32,0.42,-0.13,-0.19,-0.55,474.03,589.77,0,34,1
11.96,1.63,0.43,-0.13,-0.23,-1.48,661.24,972.90,0,34,1
9.07,3.24,-0.36,-0.61,-0.14,-2.15,434.50,569.87,0,34,1
9.39,4.56,-0.01,-0.97,-0.16,-2.46,749.05,1038.84,0,34,1
6.66,5.91,1.39,-1.24,-0.43,-2.73,609.99,685.01,0,34,1
1.82,6.50,2.57,-1.36,-0.70,-2.65,576.35,770.63,0,34,1
2.15,7.28,2.90,-0.69,0.19,-2.61,867.89,1174.58,0,34,1
-1.90,5.75,4.24,-0.93,-0.10,-2.44,1022.15,1300.60,0,34,1
-7.69,5.76,6.01,-0.53,-0.03,-1.52,868.55,1077.67,0,34,1
-6.83,7.22,5.72,-0.40,0.19,-0.53,879.96,1161.07,0,34,1
-7.15,6.19,6.41,-0.03,0.85,0.10,994.79,1222.61,0,34,1
-7.52,7.64,5.67,0.20,0.60,0.36,641.76,724.41,0,34,1
-7.27,7.40,4.98,0.39,1.01,0.68,609.69,642.48,0,34,1
-5.15,7.51,3.83,0.89,1.33,2.06,400.52,480.01,0,34,1
-2.46,8.03,2.31,0.88,0.37,2.97,366.54,466.19,0,34,1
1.25,7.39,1.58,0.83,0.11,3.18,701.37,1001.00,0,34,1
5.46,6.32,1.11,1.05,0.32,3.06,445.41,555.34,0,34,1
10.15,4.78,-1.60,0.86,-0.20,2.34,389.74,451.42,0,34,1
8.80,3.84,-1.12,0.39,-0.08,1.98,418.02,543.07,0,34,1
11.33,2.85,-1.14,0.29,0.05,1.79,359.78,453.14,0,34,1
12.23,1.60,-0.93,0.04,0.40,1.33,472.54,594.43,0,34,1
12.64,1.03,-0.50,-0.16,0.27,0.16,400.88,471.19,0,34,1
9.17,1.42,0.20,-0.16,-0.02,-0.02,378.59,445.43,0,34,1
10.07,1.38,0.03,-0.08,-0.00,0.04,352.06,404.49,0,34,1
9.85,1.58,0.22,-0.11,0.11,0.00,378.46,479.30,0,34,1
10.34,1.46,0.20,-0.06,0.12,-0.01,370.20,455.51,0,34,1
10.22,1.66,0.01,-0.13,0.16,-0.01,344.69,397.61,0,34,1
11.04,1.40,0.19,-0.14,-0.04,-0.05,564.46,849.41,0,34,1
11.68,1.73,-0.32,-0.34,-0.06,-0.85,408.74,499.98,0,34,1
10.61,2.76,-0.51,-0.41,-0.24,-1.40,500.45,640.37,0,34,1
10.85,3.70,-0.93,-0.81,-0.22,-1.83,521.25,705.36,0,34,1
9.80,5.22,-0.51,-0.98,-0.24,-2.46,662.97,792.66,0,34,1
7.07,6.10,-0.90,-1.49,-0.37,-2.93,749.89,1072.87,0,34,1
1.64,6.82,2.15,-1.34,-0.63,-2.70,670.61,963.83,0,34,1
4.88,9.24,1.86,-1.16,-0.68,-2.53,1583.39,1879.70,1,34,1
-5.00,7.28,5.68,-0.14,-0.14,-0.60,1199.94,1423.06,1,34,1
-3.69,6.93,4.84,0.14,0.58,0.34,953.19,1033.54,0,35,1
-6.44,6.44,6.06,0.40,0.63,1.16,769.47,805.77,0,35,1
-3.98,6.61,5.16,0.94,1.00,2.27,482.91,529.42,0,35,1
-0.78,7.40,2.65,1.23,0.75,2.71,419.64,520.81,0,35,1
3.53,8.12,0.62,1.10,0.47,2.50,1333.94,1797.99,1,35,1
4.40,7.66,-1.04,0.58,0.34,2.37,609.53,725.72,0,36,1
6.54,6.49,0.02,0.28,0.25,2.35,473.34,555.91,0,36,1
8.04,5.32,0.34,0.59,0.40,2.32,491.59,651.73,0,36,1
10.16,3.41,-1.06,0.36,0.30,2.15,423.00,493.15,0,36,1
12.17,2.13,-0.25,0.06,0.29,1.21,441.41,543.51,0,36,1
10.96,2.07,-0.59,-0.05,0.16,0.47,520.63,622.97,0,36,1
11.63,1.65,-0.13,-0.13,0.15,0.05,347.45,400.49,0,36,1
10.19,1.92,0.03,-0.06,0.09,0.02,420.23,501.25,0,36,1
9.98,1.75,0.44,-0.08,0.08,-0.03,377.51,452.93,0,36,1
9.67,1.97,0.16,-0.08,0.06,-0.01,398.57,497.49,0,36,1
9.86,1.82,0.33,-0.04,-0.08,0.00,365.30,460.30,0,36,1
10.97,1.85,0.07,-0.09,-0.19,-0.11,493.78,751.69,0,36,1
11.63,2.11,-0.86,-0.32,0.03,-0.79,367.41,429.42,0,36,1
9.37,3.11,0.47,-0.43,0.52,-1.09,373.96,459.18,0,36,1
9.62,3.97,-0.04,-0.38,0.23,-1.20,544.79,708.77,0,36,1
9.71,4.15,0.16,-0.67,0.46,-1.94,616.38,791.56,0,36,1
8.07,5.00,0.96,-0.73,0.70,-2.14,528.20,614.32,0,36,1
5.57,6.96,1.32,-0.73,0.21,-2.49,637.67,882.90,0,36,1
1.40,7.72,2.04,-0.79,-0.62,-2.46,658.86,782.73,0,36,1
1.23,6.38,2.45,-1.28,-0.20,-3.13,801.93,1052.23,0,36,1
-3.31,8.24,5.01,-0.95,-0.13,-2.16,831.32,1097.51,0,36,1
-2.25,6.66,4.30,-0.81,-1.08,-2.39,1013.75,1317.42,0,36,1
-2.00,6.33,4.13,-0.38,0.34,-0.98,1187.90,1478.06,1,36,1
-5.20,6.30,5.55,0.43,0.82,1.28,922.59,945.67,0,37,1
-3.26,6.36,5.04,0.86,0.99,2.33,588.91,619.72,0,37,1
-1.09,6.57,3.90,1.11,0.40,3.08,344.71,390.11,0,37,1
2.60,7.09,1.77,1.01,0.20,3.17,307.88,389.89,0,37,1
5.81,6.05,0.80,0.93,0.08,3.07,404.23,500.29,0,37,1
8.52,4.89,-0.24,0.57,-0.06,2.49,328.42,394.66,0,37,1
9.93,3.60,-0.17,0.26,0.16,1.96,328.32,390.06,0,37,1
12.09,2.76,0.24,0.20,-0.10,1.42,0.00,309.57,0,37,1
12.71,2.83,-0.28,-0.15,0.34,-0.21,311.61,378.79,0,37,1
8.70,3.50,0.48,-0.43,0.07,-0.16,0.00,373.70,0,37,1
9.98,3.08,0.61,-0.33,0.14,-0.09,321.30,386.82,0,37,1
9.41,3.55,0.43,-0.43,0.18,-0.09,334.73,399.37,0,37,1
9.49,3.37,1.30,-0.50,0.22,-0.02,0.00,359.23,0,37,1
9.02,3.18,1.60,-0.55,0.21,-0.01,0.00,341.17,0,37,1
9.19,2.93,2.16,-0.59,0.27,0.00,319.13,404.36,0,37,1
9.17,2.75,2.95,-0.38,0.18,-0.03,0.00,303.22,0,37,1
8.99,2.91,2.43,-0.14,0.22,-0.07,326.77,396.00,0,37,1
8.91,3.35,3.37,-0.07,0.22,-0.05,0.00,329.37,0,37,1
8.90,3.18,2.87,-0.14,0.20,-0.03,309.02,379.12,0,37,1
8.87,3.18,2.99,-0.14,0.12,-0.03,0.00,0.00,0,37,1
8.86,3.24,3.12,-0.14,0.11,-0.01,0.00,0.00,0,37,1
8.83,3.21,3.05,-0.13,0.12,0.02,0.00,317.72,0,37,1
