ax,ay,az,gx,gy,gz,mav,rms,label_kontraksi,repetisi,id_orang
8.79,2.80,3.46,-0.06,0.03,0.02,0.00,0.00,0,0,1
8.77,2.84,3.46,-0.07,0.04,0.02,0.00,0.00,0,0,1
8.73,2.85,3.45,-0.06,0.05,0.01,0.00,0.00,0,0,1
8.75,2.81,3.47,-0.05,0.04,-0.01,0.00,0.00,0,0,1
8.61,2.96,3.54,-0.06,0.05,0.01,0.00,0.00,0,0,1
8.75,2.96,3.57,-0.06,0.03,0.01,0.00,0.00,0,0,1
8.56,3.08,3.71,-0.02,0.01,0.02,0.00,0.00,0,0,1
8.64,3.42,3.92,-0.01,-0.04,0.05,0.00,0.00,0,0,1
8.51,3.24,3.78,0.02,-0.15,0.16,0.00,311.14,0,0,1
8.53,3.16,3.38,0.18,-0.25,0.22,0.00,341.07,0,0,1
9.24,2.97,2.50,0.34,-0.30,0.29,309.33,371.80,0,0,1
9.46,2.41,1.75,0.34,-0.19,0.38,310.51,363.53,0,0,1
9.71,2.31,1.50,0.39,-0.16,0.37,320.14,384.04,0,0,1
9.77,2.26,1.50,0.19,-0.03,0.38,0.00,318.31,0,0,1
9.81,1.64,1.52,-0.05,-0.05,0.35,0.00,315.29,0,0,1
9.70,1.42,1.58,-0.25,-0.02,0.27,0.00,344.24,0,0,1
9.61,0.82,1.83,-0.19,-0.07,0.16,0.00,339.15,0,0,1
9.96,0.83,1.46,-0.29,0.01,0.10,0.00,360.51,0,0,1
9.96,1.04,1.07,-0.29,-0.05,0.08,0.00,340.07,0,0,1
10.52,0.88,1.50,-0.23,-0.10,0.08,320.83,393.17,0,0,1
10.97,0.80,1.56,-0.33,0.11,-0.17,440.87,626.07,0,0,1
12.78,1.12,1.68,-0.13,-0.37,-0.96,761.16,1136.01,0,0,1
13.49,2.10,-0.89,-0.60,-0.31,-2.76,671.99,886.66,0,0,1
9.24,3.27,-0.72,-1.39,-0.68,-3.49,962.84,1283.03,0,0,1
5.76,4.83,1.51,-1.12,-1.09,-3.29,1049.58,1370.24,0,0,1
0.54,3.68,2.63,-1.43,-0.40,-3.34,1163.27,1392.79,0,0,1
0.33,5.63,3.16,-1.79,-0.39,-3.20,1206.47,1442.78,1,0,1
-1.93,7.63,4.22,0.72,1.05,1.07,963.85,1052.75,0,1,1
-2.98,6.52,2.38,1.06,1.17,2.71,773.81,823.79,0,1,1
1.73,7.96,1.32,1.11,0.64,3.48,545.75,650.29,0,1,1
6.07,8.34,0.40,0.66,0.74,3.32,382.18,445.41,0,1,1
9.55,5.96,-0.47,0.46,1.05,2.91,375.81,536.66,0,1,1
12.40,3.30,0.51,-0.04,0.20,2.11,497.32,649.77,0,1,1
10.19,2.78,0.17,-0.10,0.29,1.23,479.73,613.90,0,1,1
9.66,1.67,1.32,-0.29,0.17,1.01,415.15,518.39,0,1,1
9.55,0.97,1.37,-0.07,0.15,0.94,405.59,497.74,0,1,1
12.12,0.28,1.27,-0.16,0.59,0.27,426.27,495.39,0,1,1
9.27,0.83,1.54,-0.06,0.22,0.01,315.91,389.76,0,1,1
9.66,0.75,1.82,-0.06,0.04,0.00,338.61,398.04,0,1,1
10.12,0.81,1.43,-0.08,0.10,-0.04,439.75,542.73,0,1,1
9.75,0.85,2.18,-0.14,-0.02,-0.12,488.60,624.78,0,1,1
9.85,1.16,0.61,-0.16,-0.11,0.25,301.57,358.06,0,1,1
10.25,-0.00,1.68,-0.28,0.19,0.17,329.33,373.55,0,1,1
10.13,0.21,1.38,-0.01,0.00,0.04,313.13,380.39,0,1,1
9.91,0.28,1.56,-0.09,-0.00,0.05,346.13,454.69,0,1,1
10.00,0.30,1.51,-0.06,0.02,0.02,593.96,835.22,0,1,1
10.64,0.36,1.75,-0.10,-0.09,0.03,651.46,950.39,0,1,1
12.97,0.45,1.92,0.16,-0.54,-1.02,760.87,1054.33,0,1,1
12.88,2.04,-1.91,-0.11,-0.79,-1.96,942.02,1250.79,0,1,1
11.69,3.32,-1.54,-1.33,-0.65,-3.19,1201.79,1538.28,1,1,1
-4.18,6.63,5.01,-0.74,-0.09,-2.22,1164.10,1387.49,0,2,1
-3.50,8.25,5.37,0.19,0.43,-0.13,1302.67,1483.16,1,2,1
-3.07,7.05,4.19,1.10,0.94,1.25,1094.29,1278.73,0,3,1
-3.07,6.68,2.14,1.62,1.23,3.09,763.22,892.59,0,3,1
1.40,8.37,0.17,0.93,0.23,3.79,809.74,954.54,0,3,1
6.65,5.95,-1.07,0.13,0.12,3.66,619.76,683.22,0,3,1
12.41,2.22,-1.13,-0.04,0.22,3.27,584.42,819.88,0,3,1
13.05,0.12,0.16,0.03,-0.14,2.00,485.68,561.20,0,3,1
11.43,-0.07,-1.71,-0.21,0.20,1.18,430.49,498.13,0,3,1
12.40,-0.52,-0.06,-0.20,0.34,0.28,414.17,504.04,0,3,1
10.10,0.12,-1.22,0.19,0.23,0.16,379.93,440.46,0,3,1
10.61,-0.67,0.96,-0.02,0.49,-0.06,395.78,465.65,0,3,1
10.09,-0.31,0.28,-0.09,-0.03,0.05,336.76,393.51,0,3,1
10.28,-0.50,0.69,-0.06,0.15,-0.02,358.42,423.41,0,3,1
10.11,-0.33,0.46,-0.04,0.06,0.03,351.12,421.50,0,3,1
10.28,-0.22,0.55,-0.08,-0.03,0.03,336.25,392.82,0,3,1
10.41,-0.25,0.56,-0.11,-0.02,0.04,506.30,760.87,0,3,1
11.44,-0.39,1.23,-0.03,-0.22,-0.42,582.62,766.73,0,3,1
13.82,0.37,-0.19,0.11,-0.80,-1.53,616.82,832.97,0,3,1
12.21,2.09,-2.40,-0.35,-0.11,-2.61,838.34,1097.67,0,3,1
10.50,3.74,-2.56,-1.26,-0.73,-3.26,1079.22,1460.82,1,3,1
-2.10,6.16,4.68,-0.92,0.03,-2.37,1012.97,1282.12,0,4,1
-3.41,8.50,4.20,-0.10,0.12,-0.28,1108.45,1342.90,0,4,1
-2.81,8.70,3.49,0.23,0.87,0.23,1386.51,1575.10,1,4,1
-2.69,6.95,3.67,1.03,1.12,1.76,1236.28,1393.28,1,4,1
-0.83,7.20,1.47,1.29,0.20,3.27,987.78,1117.00,0,5,1
4.24,7.47,-1.43,1.15,0.95,3.41,807.47,940.45,0,5,1
8.43,3.64,-2.06,0.48,0.35,3.42,792.03,903.15,0,5,1
11.88,2.05,-1.18,-0.13,0.55,2.64,799.58,962.95,0,5,1
10.99,0.71,0.37,-0.27,0.18,1.81,675.48,807.65,0,5,1
12.38,-0.31,-0.81,-0.04,-0.04,1.28,480.63,564.11,0,5,1
12.75,-0.88,-0.05,-0.23,0.19,0.31,512.15,622.67,0,5,1
9.55,-0.18,-0.15,0.07,0.00,0.00,374.01,441.41,0,5,1
9.69,-0.58,0.73,-0.08,0.26,-0.03,370.97,426.63,0,5,1
10.22,-0.22,0.00,-0.06,0.02,0.01,347.45,402.62,0,5,1
10.03,-0.26,0.28,-0.07,0.03,0.02,395.48,454.51,0,5,1
10.24,-0.38,0.28,-0.08,0.03,0.03,397.04,475.54,0,5,1
10.10,-0.35,0.27,-0.04,0.02,0.03,399.03,464.20,0,5,1
10.16,-0.39,0.47,-0.03,-0.00,-0.00,351.68,445.43,0,5,1
12.37,-0.35,0.84,-0.02,-0.21,-0.46,516.10,645.46,0,5,1
13.69,0.43,-0.86,0.01,-0.81,-1.65,571.86,777.84,0,5,1
11.36,1.77,-1.41,-0.50,-0.24,-2.55,816.21,1122.74,0,5,1
10.38,3.54,-1.83,-1.23,-0.33,-3.18,956.24,1243.28,0,5,1
5.47,5.06,-1.19,-1.52,-0.85,-3.28,1106.12,1390.69,0,5,1
3.83,6.13,1.52,-1.81,-0.26,-3.29,1014.33,1252.34,0,5,1
-0.54,7.64,3.03,-0.95,-0.06,-2.27,1231.60,1522.26,1,5,1
-4.80,8.15,4.59,0.28,0.75,0.56,1169.11,1341.79,0,6,1
-3.96,7.38,2.70,1.04,0.90,2.44,1075.34,1227.83,0,6,1
1.77,8.12,0.60,1.31,0.05,3.18,929.69,1062.83,0,6,1
4.68,7.14,-0.89,0.89,0.30,3.14,933.95,1003.91,0,6,1
7.58,3.76,-0.68,0.27,0.72,3.27,593.43,670.21,0,6,1
11.46,1.85,-0.06,0.17,0.21,2.76,549.02,698.20,0,6,1
11.92,1.45,-1.59,0.21,-0.16,1.90,427.08,500.18,0,6,1
12.10,0.04,-1.00,-0.36,0.23,1.03,364.96,436.99,0,6,1
10.29,-0.61,0.82,-0.09,0.70,0.78,538.51,687.19,0,6,1
11.61,-1.49,0.27,0.05,-0.11,0.07,409.14,497.39,0,6,1
10.59,-0.86,-0.11,-0.11,-0.03,0.03,366.76,449.44,0,6,1
10.14,-0.74,0.33,-0.03,0.01,-0.00,457.27,631.29,0,6,1
10.24,-0.94,0.27,-0.08,0.05,-0.02,370.22,427.40,0,6,1
10.24,-0.90,0.34,-0.05,-0.03,0.00,374.88,446.82,0,6,1
9.98,-0.55,0.24,-0.05,0.05,0.00,333.06,395.18,0,6,1
9.99,-0.82,0.40,-0.13,0.09,-0.01,382.17,444.77,0,6,1
10.26,-0.67,0.39,-0.10,0.01,-0.02,455.63,564.54,0,6,1
9.79,-0.53,0.33,-0.13,0.05,0.06,485.90,680.35,0,6,1
11.38,-1.16,0.96,-0.12,-0.15,-0.13,383.23,500.91,0,6,1
13.66,-0.68,-0.60,-0.19,-0.66,-1.48,646.23,888.35,0,6,1
11.91,1.35,-2.20,-0.44,-0.35,-2.13,729.17,1034.69,0,6,1
11.05,3.08,-2.84,-1.21,-0.53,-2.84,598.50,763.64,0,6,1
6.65,3.62,-0.09,-1.60,-0.03,-3.10,884.56,1230.08,0,6,1
5.09,6.09,0.34,-1.40,-0.38,-3.19,1069.44,1424.18,1,6,1
-2.63,7.97,4.76,-0.20,0.26,-0.55,692.48,822.60,0,7,1
-2.29,8.10,4.65,0.64,0.85,0.77,629.83,789.42,0,7,1
-2.79,6.64,3.09,1.39,0.64,2.64,535.40,606.60,0,7,1
2.88,7.64,-0.45,1.51,0.29,3.47,526.67,606.08,0,7,1
6.27,6.31,-1.69,0.92,0.67,3.57,400.69,526.04,0,7,1
10.37,3.37,-2.18,0.09,-0.04,3.10,656.97,846.86,0,7,1
11.74,1.24,-0.54,-0.36,0.53,2.12,774.48,1010.79,0,7,1
12.11,0.10,0.12,-0.25,-0.00,1.28,865.88,1179.22,0,7,1
10.60,-0.14,-0.34,0.12,0.31,0.87,551.48,648.63,0,7,1
12.56,-0.51,-1.28,0.03,0.32,0.62,480.09,586.53,0,7,1
10.36,-0.88,1.22,-0.11,0.44,-0.12,464.21,546.76,0,7,1
11.00,-0.71,-0.23,0.00,-0.09,0.01,480.14,552.85,0,7,1
10.05,-0.73,0.95,-0.09,0.15,-0.01,494.45,575.39,0,7,1
10.35,-0.73,0.51,-0.07,0.14,-0.00,436.96,502.33,0,7,1
9.91,-0.75,0.87,-0.09,-0.01,-0.05,375.31,448.90,0,7,1
10.37,-0.69,0.88,-0.05,0.01,0.01,374.46,454.89,0,7,1
10.33,-0.63,0.91,-0.04,-0.02,-0.01,395.02,466.68,0,7,1
9.92,-0.48,0.73,-0.08,0.06,-0.00,370.16,437.58,0,7,1
10.27,-0.64,0.90,-0.10,0.05,0.02,469.49,639.00,0,7,1
11.28,-0.61,0.84,-0.05,-0.14,-0.19,474.70,620.98,0,7,1
13.42,-0.03,0.27,0.01,-0.65,-0.92,434.57,498.43,0,7,1
10.63,1.24,-0.49,-0.20,-0.00,-1.53,804.79,1088.62,0,7,1
11.42,2.15,-0.22,-0.47,-0.22,-1.86,706.94,946.17,0,7,1
11.70,3.61,-1.22,-0.76,-0.06,-2.85,564.69,714.50,0,7,1
4.79,4.75,0.20,-1.18,-0.61,-3.13,1000.05,1284.85,0,7,1
3.65,6.86,0.16,-1.27,-0.51,-2.72,767.75,1024.38,0,7,1
2.63,8.12,1.84,-1.10,0.15,-2.34,1162.11,1515.83,1,7,1
-3.26,9.06,3.38,0.43,0.57,0.76,631.39,750.87,0,8,1
-2.02,7.56,2.79,0.79,0.67,1.63,528.57,613.27,0,8,1
-0.16,7.02,2.04,0.97,1.15,2.66,494.79,588.35,0,8,1
3.75,8.34,-0.34,0.55,1.38,2.77,428.22,482.77,0,8,1
6.75,6.33,0.42,-0.01,0.65,2.88,439.81,552.47,0,8,1
9.54,4.25,1.80,0.03,0.87,2.33,557.19,751.79,0,8,1
10.09,2.58,0.42,0.01,-0.18,1.80,640.50,788.09,0,8,1
11.44,1.26,-0.11,-0.16,-0.59,1.35,627.41,781.84,0,8,1
11.60,0.74,0.26,-0.09,-0.25,0.94,711.31,926.29,0,8,1
11.43,0.24,0.06,-0.03,0.08,0.51,448.08,558.19,0,8,1
10.20,0.22,0.40,-0.06,0.33,-0.14,466.99,553.60,0,8,1
10.44,0.38,0.11,-0.09,-0.06,0.03,403.44,472.89,0,8,1
10.00,0.42,0.39,-0.09,0.05,-0.00,449.37,564.62,0,8,1
9.99,0.35,0.38,-0.08,0.13,0.01,492.05,560.16,0,8,1
10.12,0.30,0.44,-0.08,0.10,0.00,450.57,512.13,0,8,1
10.21,0.39,0.25,-0.06,0.04,0.01,392.57,436.64,0,8,1
10.18,0.33,0.52,-0.06,0.01,0.04,376.24,464.04,0,8,1
11.14,0.31,0.68,0.02,-0.06,-0.17,451.93,547.05,0,8,1
10.84,0.78,-0.08,0.04,-0.32,-0.59,419.97,507.55,0,8,1
12.19,1.44,-0.69,-0.22,-0.18,-1.14,695.88,1037.30,0,8,1
12.05,2.54,-1.21,-0.49,0.06,-1.94,598.01,748.07,0,8,1
9.71,3.75,-0.56,-0.69,-0.17,-2.55,693.15,904.08,0,8,1
7.24,5.59,-0.16,-0.96,-0.39,-2.75,967.56,1321.20,0,8,1
4.12,6.39,0.61,-1.21,-0.74,-2.81,775.53,987.66,0,8,1
2.24,6.04,1.98,-1.35,0.19,-2.84,919.66,1138.41,0,8,1
-2.32,7.44,3.64,-0.72,-0.02,-1.80,786.74,942.59,0,8,1
-3.90,8.05,3.97,-0.45,-0.20,-1.04,909.96,1187.15,0,8,1
-4.62,8.57,3.98,-0.26,-0.21,-0.23,786.01,968.55,0,8,1
-2.89,8.54,3.83,-0.19,0.00,-0.06,727.54,966.11,0,8,1
-3.71,8.17,4.76,0.08,0.44,0.44,636.03,760.12,0,8,1
-5.57,7.21,4.92,0.46,1.30,0.97,605.33,707.31,0,8,1
-1.81,7.27,3.27,0.33,0.81,1.13,697.02,897.00,0,8,1
-4.30,2.72,4.92,1.89,0.42,4.60,463.30,529.30,0,8,1
7.28,5.58,-0.65,1.99,1.55,4.24,620.82,956.48,0,8,1
11.23,3.33,-1.78,0.79,0.49,3.57,638.14,868.80,0,8,1
13.96,1.31,-1.36,-0.38,0.70,1.92,462.89,578.98,0,8,1
11.94,1.05,0.67,-0.44,0.17,0.80,517.64,627.25,0,8,1
9.77,1.08,0.29,0.15,-0.11,0.91,519.26,611.60,0,8,1
12.40,-0.04,-0.28,-0.16,0.40,0.36,432.57,535.02,0,8,1
9.55,0.40,1.25,-0.04,0.58,-0.05,463.01,530.68,0,8,1
10.67,0.52,0.47,-0.04,0.16,-0.01,483.00,569.39,0,8,1
10.15,0.42,1.06,-0.12,0.02,0.01,453.66,518.40,0,8,1
10.28,0.28,0.76,-0.09,0.13,-0.03,491.01,544.23,0,8,1
9.80,0.50,1.13,-0.06,0.14,0.01,471.95,543.02,0,8,1
10.02,0.58,0.95,-0.08,0.09,-0.01,420.11,479.27,0,8,1
10.32,0.46,1.04,-0.12,0.01,-0.03,547.70,622.74,0,8,1
10.62,0.32,1.64,-0.05,-0.15,-0.19,586.46,691.20,0,8,1
12.70,1.09,-0.12,0.00,-0.45,-0.88,852.81,1109.65,0,8,1
11.60,2.24,-0.45,-0.28,-0.18,-1.57,625.64,756.22,0,8,1
9.34,3.46,0.66,-0.61,-0.14,-2.08,691.64,904.30,0,8,1
9.39,5.57,0.67,-0.94,-1.04,-2.47,590.44,792.56,0,8,1
8.71,5.63,0.98,-1.26,-0.85,-3.28,1033.69,1357.08,0,8,1
1.36,5.48,1.24,-0.93,-0.30,-2.95,1088.38,1359.14,0,8,1
0.43,7.17,0.98,-1.26,-0.44,-2.27,1144.90,1401.82,1,8,1
-4.69,8.16,5.20,0.36,0.81,0.52,743.59,898.91,0,9,1
-2.18,8.24,3.13,1.12,1.73,1.66,690.87,761.70,0,9,1
-0.94,8.20,1.77,1.01,2.02,2.63,509.69,580.77,0,9,1
3.98,7.04,1.20,0.67,0.05,3.08,398.61,576.79,0,9,1
6.21,6.84,0.60,0.38,0.97,2.92,441.86,581.74,0,9,1
10.49,4.49,0.56,-0.05,-0.30,2.58,592.36,792.50,0,9,1
11.22,2.82,0.98,-0.19,0.13,1.76,803.41,1020.93,0,9,1
11.88,1.52,0.33,-0.04,-0.48,1.25,775.55,954.82,0,9,1
10.60,0.99,0.13,0.16,-0.17,1.07,463.47,551.13,0,9,1
12.60,0.52,-0.90,-0.06,0.42,0.37,1444.25,1750.36,1,9,1
9.49,0.62,0.78,-0.17,0.24,-0.10,1521.20,1751.69,1,9,1
10.13,0.57,0.59,-0.01,0.03,0.09,1058.15,1214.55,0,10,1
10.14,0.66,0.18,-0.08,0.06,-0.01,1068.59,1276.93,0,10,1
9.87,0.43,0.45,-0.12,0.01,0.02,1310.97,1504.12,1,10,1
10.24,0.60,0.33,-0.08,0.02,0.01,1193.14,1370.14,0,11,1
10.32,0.58,0.63,-0.05,0.03,-0.02,1063.83,1232.90,0,11,1
10.65,0.66,0.40,-0.08,0.06,-0.22,1240.29,1436.32,1,11,1
9.88,1.03,0.38,-0.10,-0.03,-0.22,1262.40,1446.35,1,11,1
12.29,1.24,-0.14,-0.19,0.04,-0.65,1281.08,1458.61,1,11,1
11.26,1.54,0.50,-0.30,0.69,-1.60,1072.38,1226.38,0,12,1
9.52,3.34,0.67,-0.39,0.11,-1.79,949.27,1136.71,0,12,1
10.87,4.49,-0.21,-0.68,-0.23,-2.24,914.09,1048.60,0,12,1
8.64,5.68,0.55,-1.06,-0.17,-3.11,1042.87,1280.01,0,12,1
0.73,5.26,2.22,-1.35,-0.73,-3.20,921.73,1130.75,0,12,1
-1.65,6.42,3.67,-1.28,-0.34,-2.41,841.81,1041.02,0,12,1
-0.98,7.27,4.53,-0.95,-0.29,-1.49,909.22,1185.81,0,12,1
-3.43,7.18,6.39,-0.59,-0.05,-1.02,1209.55,1481.45,1,12,1
-0.97,7.65,4.28,1.37,1.23,2.08,816.22,895.70,0,13,1
-0.01,7.22,2.04,1.28,1.06,2.84,525.41,595.07,0,13,1
4.52,7.24,-0.96,0.91,0.76,3.01,548.19,736.09,0,13,1
7.40,5.15,-0.50,0.31,0.54,2.97,1012.60,1380.79,0,13,1
9.24,3.54,0.48,0.10,0.35,2.54,1248.86,1549.31,1,13,1
10.97,2.97,0.20,0.20,0.34,1.97,1084.36,1300.21,0,14,1
11.00,1.86,0.17,0.03,0.14,1.30,833.41,961.26,0,14,1
11.99,0.80,0.34,-0.09,0.14,0.87,782.05,833.20,0,14,1
11.21,0.49,0.63,-0.11,0.25,0.12,617.31,663.61,0,14,1
9.90,0.63,0.86,-0.08,0.04,0.15,372.67,427.62,0,14,1
10.25,0.48,0.62,-0.16,0.03,0.26,314.84,356.22,0,14,1
9.77,-0.24,0.80,-0.09,0.07,0.17,0.00,0.00,0,14,1
9.71,-0.07,0.64,-0.05,0.00,0.17,0.00,0.00,0,14,1
10.18,-0.53,0.99,-0.09,-0.06,0.14,0.00,0.00,0,14,1
10.08,-0.21,0.81,-0.01,-0.03,0.11,0.00,0.00,0,14,1
9.95,-0.34,0.84,-0.01,-0.10,0.23,0.00,0.00,0,14,1
10.03,-0.85,0.52,-0.06,-0.12,0.22,0.00,0.00,0,14,1
10.08,-1.05,0.26,0.01,-0.09,0.15,0.00,0.00,0,14,1
10.28,-0.84,0.21,-0.05,-0.00,0.07,0.00,0.00,0,14,1
10.13,-1.02,0.43,-0.10,0.01,0.01,0.00,0.00,0,14,1
9.98,-0.68,-0.18,-0.05,-0.09,-0.01,0.00,340.91,0,14,1
11.88,-1.01,0.38,-0.06,-0.45,-0.55,410.57,541.28,0,14,1
12.76,-0.25,-1.48,-0.16,-0.28,-1.84,528.67,715.39,0,14,1
12.18,1.77,-2.35,-0.61,-0.33,-2.55,700.93,1080.04,0,14,1
10.37,3.28,-2.03,-1.41,-0.48,-3.47,829.51,1109.10,0,14,1
3.95,2.66,0.23,-1.67,-0.53,-3.56,781.23,942.63,0,14,1
3.55,7.67,0.12,-1.28,-0.24,-2.73,917.34,1221.44,0,14,1
0.66,7.72,2.64,-1.06,-0.14,-2.45,1050.45,1391.57,0,14,1
-4.48,7.84,3.32,-0.60,-0.71,-1.24,1262.03,1543.17,1,14,1
-1.93,8.23,3.10,0.76,0.80,1.95,866.17,914.59,0,15,1
-0.24,8.11,1.58,1.11,0.34,2.66,587.29,633.45,0,15,1
1.81,6.56,0.08,1.01,0.23,3.38,472.54,607.05,0,15,1
6.31,5.07,-0.96,0.61,0.67,3.68,339.29,414.78,0,15,1
12.23,1.34,-1.13,0.22,0.36,2.87,466.35,787.55,0,15,1
10.92,-0.09,-0.29,0.40,0.04,1.94,322.33,366.88,0,15,1
10.43,-0.09,-1.95,0.28,-0.07,1.48,326.35,402.02,0,15,1
11.24,-1.60,-0.92,0.07,0.15,1.33,462.16,599.32,0,15,1
13.43,-2.45,-1.20,0.14,0.45,0.56,392.82,526.44,0,15,1
10.69,-2.01,-0.75,-0.19,0.14,0.03,0.00,320.85,0,15,1
10.26,-2.67,0.10,-0.05,0.03,-0.00,305.87,391.47,0,15,1
9.76,-2.28,-0.62,-0.09,0.10,-0.15,0.00,0.00,0,15,1
10.01,-2.00,-0.54,-0.20,0.15,-0.18,0.00,0.00,0,15,1
10.03,-1.48,-0.38,-0.11,0.20,-0.10,0.00,0.00,0,15,1
10.26,-1.43,-0.37,-0.03,0.06,0.03,0.00,0.00,0,15,1
10.01,-1.84,-0.15,-0.10,0.08,0.05,0.00,0.00,0,15,1
10.09,-1.78,-0.04,-0.10,0.05,0.01,0.00,303.09,0,15,1
10.05,-1.66,-0.20,-0.07,0.09,0.00,0.00,0.00,0,15,1
9.95,-1.43,-0.07,-0.07,0.07,-0.02,0.00,0.00,0,15,1
11.29,-1.89,-0.18,-0.06,-0.18,-0.26,388.12,578.69,0,15,1
14.85,-1.02,-1.31,-0.18,-0.12,-1.09,467.83,738.24,0,15,1
12.44,0.72,-1.58,-0.30,-0.30,-2.10,340.98,452.28,0,15,1
11.46,1.78,-1.02,-0.60,-0.00,-2.46,593.60,835.60,0,15,1
9.73,3.95,-0.54,-0.68,-0.66,-3.17,975.96,1350.77,0,15,1
5.20,5.39,-0.62,-0.87,-1.13,-3.26,824.93,1078.73,0,15,1
2.36,6.56,-0.42,-1.43,-0.24,-3.01,1111.76,1433.07,1,15,1
-1.41,9.13,3.39,0.19,0.66,0.50,714.03,779.51,0,16,1
-1.02,8.55,2.10,0.70,0.11,1.94,507.63,582.60,0,16,1
-1.11,7.10,1.64,1.00,0.14,2.96,386.15,444.09,0,16,1
4.35,5.27,0.11,1.12,0.67,3.66,479.35,693.24,0,16,1
10.88,3.57,-1.70,0.81,0.25,3.37,392.54,546.52,0,16,1
11.76,1.00,-1.66,0.29,0.50,2.33,474.90,666.03,0,16,1
11.53,0.12,-0.81,0.18,-0.09,1.46,322.42,369.44,0,16,1
11.57,-0.67,-0.80,0.17,-0.25,1.14,334.80,443.80,0,16,1
11.44,-1.27,-1.57,0.14,0.22,0.74,0.00,326.70,0,16,1
10.73,-1.84,-0.54,-0.13,0.34,0.12,0.00,0.00,0,16,1
10.37,-1.48,-0.25,-0.08,0.13,-0.00,0.00,0.00,0,16,1
10.09,-1.70,-0.37,-0.10,0.17,-0.05,0.00,0.00,0,16,1
10.18,-1.49,-0.18,-0.05,0.14,0.03,0.00,0.00,0,16,1
10.21,-1.54,-0.24,-0.07,0.11,0.03,0.00,0.00,0,16,1
10.13,-1.68,-0.17,-0.07,0.10,-0.01,0.00,0.00,0,16,1
10.10,-1.56,-0.04,-0.06,0.06,-0.00,0.00,0.00,0,16,1
10.12,-1.49,-0.24,-0.08,0.07,0.01,0.00,0.00,0,16,1
10.11,-1.41,-0.06,-0.08,0.10,-0.02,0.00,0.00,0,16,1
10.22,-1.38,0.08,-0.05,0.06,0.00,0.00,0.00,0,16,1
10.03,-1.39,-0.25,-0.05,0.08,0.01,0.00,0.00,0,16,1
10.82,-1.43,0.33,-0.08,-0.06,-0.24,0.00,407.49,0,16,1
13.49,-1.11,-0.92,-0.16,-0.29,-1.10,431.90,734.68,0,16,1
12.44,0.34,-1.74,-0.45,0.09,-1.84,385.56,519.06,0,16,1
11.10,1.64,-1.32,-0.67,-0.17,-2.37,542.84,765.36,0,16,1
10.26,3.10,0.11,-0.66,-0.62,-2.77,580.48,849.30,0,16,1
8.04,5.29,-0.85,-0.86,-0.77,-3.36,853.73,1130.31,0,16,1
2.17,4.03,0.04,-1.22,-0.27,-3.58,930.09,1280.52,0,16,1
-2.58,7.21,2.68,-1.06,-0.53,-2.06,1041.18,1373.11,0,16,1
-2.49,8.50,3.89,-0.82,-0.70,-1.22,1233.29,1526.30,1,16,1
-2.21,7.66,3.34,0.87,0.32,2.09,899.65,942.50,0,17,1
0.67,7.17,1.44,1.01,0.66,3.11,576.59,627.63,0,17,1
4.92,5.56,0.48,0.81,0.88,3.60,416.13,477.21,0,17,1
9.83,3.61,-0.30,0.70,0.07,3.29,372.80,437.52,0,17,1
11.09,2.13,-0.75,0.37,0.36,2.29,435.35,620.04,0,17,1
10.80,1.16,-0.09,0.25,0.35,1.61,0.00,305.99,0,17,1
10.55,0.34,-0.33,0.20,-0.15,1.29,0.00,0.00,0,17,1
11.77,-0.83,-0.40,0.19,-0.15,1.06,0.00,0.00,0,17,1
12.17,-1.06,-0.38,-0.09,0.18,0.18,0.00,0.00,0,17,1
9.15,-0.87,0.34,-0.06,0.07,-0.00,0.00,0.00,0,17,1
10.34,-1.04,-0.11,-0.12,0.18,0.02,0.00,0.00,0,17,1
9.69,-0.95,0.10,-0.09,0.02,0.04,0.00,320.82,0,17,1
10.07,-1.02,0.19,-0.09,0.10,-0.01,0.00,0.00,0,17,1
10.14,-1.07,0.07,-0.05,0.01,0.03,0.00,0.00,0,17,1
10.15,-0.94,0.11,-0.06,-0.03,0.03,0.00,0.00,0,17,1
10.19,-1.01,-0.00,-0.08,-0.00,0.00,0.00,0.00,0,17,1
10.21,-0.91,-0.17,-0.08,-0.02,0.01,0.00,0.00,0,17,1
10.14,-0.87,-0.03,-0.06,0.00,0.03,0.00,0.00,0,17,1
10.05,-1.02,-0.16,-0.07,0.04,0.01,0.00,0.00,0,17,1
10.07,-0.88,0.08,-0.09,0.05,0.00,0.00,0.00,0,17,1
11.35,-1.16,0.38,-0.03,-0.06,-0.13,449.47,659.71,0,17,1
12.57,-0.62,-0.10,-0.09,-0.07,-1.28,0.00,360.61,0,17,1
11.65,0.98,-1.53,-0.25,-0.25,-1.90,568.23,828.92,0,17,1
12.28,1.85,-1.61,-0.96,-0.08,-3.29,869.79,1236.91,0,17,1
6.79,3.83,0.28,-1.09,-0.56,-3.67,735.63,1003.68,0,17,1
4.22,6.04,-0.15,-1.20,-0.64,-3.45,543.86,690.50,0,17,1
0.85,5.67,2.36,-1.58,-0.31,-2.85,853.13,1199.06,0,17,1
-2.28,7.39,3.79,-1.18,-0.21,-2.05,1097.24,1474.12,1,17,1
-2.49,7.37,4.23,1.15,0.92,2.63,671.93,730.33,0,18,1
1.81,7.54,1.02,1.13,0.53,3.39,523.49,577.36,0,18,1
7.19,5.79,-0.20,0.59,1.06,3.29,437.51,523.37,0,18,1
9.34,3.15,0.18,0.51,0.40,2.92,341.88,399.85,0,18,1
11.80,3.03,-0.32,0.21,-0.17,1.96,365.24,438.38,0,18,1
10.88,1.64,-0.06,0.10,-0.16,1.35,419.22,613.82,0,18,1
11.26,0.80,-0.44,0.14,-0.13,1.04,0.00,348.39,0,18,1
10.89,0.26,-0.12,0.07,-0.09,0.65,0.00,0.00,0,18,1
10.12,-0.20,0.00,0.02,0.13,0.58,0.00,0.00,0,18,1
11.74,-0.69,-0.24,-0.06,0.10,0.25,0.00,0.00,0,18,1
10.10,-0.53,-0.03,-0.06,0.13,-0.07,0.00,410.95,0,18,1
10.71,-0.52,-0.31,-0.08,0.03,0.01,0.00,0.00,0,18,1
9.83,-0.43,0.17,-0.09,0.07,-0.03,0.00,0.00,0,18,1
10.16,-0.43,-0.10,-0.08,0.06,0.01,0.00,0.00,0,18,1
10.09,-0.55,-0.01,-0.09,0.03,0.00,0.00,342.83,0,18,1
9.78,-0.38,0.12,-0.08,0.00,-0.08,0.00,0.00,0,18,1
10.10,-0.31,-0.25,-0.06,-0.01,0.05,0.00,0.00,0,18,1
11.23,-0.44,-0.11,-0.11,-0.05,-0.08,333.30,462.15,0,18,1
12.92,0.04,-0.67,-0.12,-0.10,-0.94,304.35,409.37,0,18,1
11.86,1.13,-0.73,-0.26,0.17,-1.52,437.46,587.85,0,18,1
11.26,1.84,-0.67,-0.65,0.31,-2.36,473.12,693.83,0,18,1
9.59,3.69,-0.45,-0.92,-0.25,-2.86,537.28,662.78,0,18,1
7.63,4.70,0.43,-1.01,-0.19,-3.27,610.71,888.13,0,18,1
3.61,7.70,1.32,-1.28,-1.05,-3.04,1007.66,1341.71,0,18,1
-1.05,7.11,2.65,-1.09,-0.18,-2.63,1242.44,1611.72,1,18,1
-3.65,8.07,4.29,0.68,0.58,1.58,662.70,719.39,0,19,1
-1.00,7.20,2.78,1.07,0.08,2.93,543.14,660.32,0,19,1
1.75,5.75,1.78,0.94,0.40,3.52,458.32,502.75,0,19,1
9.42,4.67,-1.09,0.76,0.04,3.38,396.78,505.52,0,19,1
11.30,2.43,-0.59,0.51,-0.01,2.49,353.46,437.05,0,19,1
11.71,2.26,-0.35,0.58,-0.18,1.49,466.56,695.25,0,19,1
10.12,1.41,-1.50,0.17,0.05,0.95,319.57,356.23,0,19,1
10.91,0.24,-0.32,0.00,0.31,0.84,0.00,328.65,0,19,1
10.26,0.01,-0.20,0.15,0.28,0.73,0.00,340.17,0,19,1
11.71,-0.50,-0.80,-0.12,0.19,0.00,0.00,0.00,0,19,1
9.57,-0.11,0.21,-0.07,0.08,0.00,0.00,0.00,0,19,1
10.17,-0.33,-0.06,-0.08,0.16,0.01,0.00,0.00,0,19,1
10.14,-0.35,-0.06,-0.07,0.03,0.01,0.00,0.00,0,19,1
10.04,-0.18,-0.00,-0.08,0.08,-0.01,0.00,0.00,0,19,1
10.11,-0.11,-0.17,-0.05,0.11,0.04,0.00,0.00,0,19,1
9.97,-0.31,0.07,-0.09,0.13,0.08,0.00,0.00,0,19,1
10.26,-0.40,0.12,-0.06,-0.08,-0.01,0.00,0.00,0,19,1
10.66,-0.22,-0.03,-0.04,-0.08,-0.02,301.30,491.00,0,19,1
11.55,-0.02,-0.09,-0.07,-0.13,-0.45,317.95,450.10,0,19,1
13.23,0.67,-1.14,-0.22,-0.29,-0.92,640.71,928.14,0,19,1
11.34,1.29,-0.84,-0.52,0.18,-1.80,431.94,598.50,0,19,1
9.71,3.20,-0.49,-0.62,0.28,-1.89,664.87,867.57,0,19,1
10.33,3.94,-0.17,-0.80,0.26,-2.42,890.20,1251.36,0,19,1
6.73,5.07,1.47,-0.85,0.11,-3.20,737.24,958.86,0,19,1
3.47,6.67,0.72,-1.71,-1.34,-3.47,724.12,987.79,0,19,1
-3.47,6.73,3.58,-0.96,0.38,-2.70,990.93,1259.79,0,19,1
-3.87,9.14,3.97,-0.53,-0.73,-0.67,990.64,1245.57,0,19,1
-4.41,8.01,3.96,-0.36,-0.15,-0.28,1166.59,1453.14,1,19,1
-2.94,6.21,3.95,1.19,1.15,2.85,736.20,801.60,0,20,1
1.25,6.37,2.08,1.10,1.10,3.67,523.78,625.69,0,20,1
4.07,4.64,1.86,0.61,0.87,3.94,395.86,454.32,0,20,1
11.64,2.66,-0.13,0.32,-0.14,3.46,420.50,581.00,0,20,1
12.07,1.59,0.42,0.05,-0.30,2.13,311.34,372.61,0,20,1
11.36,0.98,0.14,-0.02,0.11,1.34,313.27,358.65,0,20,1
12.81,0.04,-0.19,-0.01,0.13,0.72,0.00,0.00,0,20,1
10.81,0.49,-0.98,-0.03,0.30,-0.13,0.00,0.00,0,20,1
11.52,0.07,-0.13,-0.14,-0.10,0.07,0.00,0.00,0,20,1
10.12,0.25,-0.13,-0.16,0.11,0.00,0.00,0.00,0,20,1
10.15,0.02,0.23,-0.12,0.10,0.01,0.00,0.00,0,20,1
10.08,0.21,0.28,-0.06,0.08,0.02,0.00,0.00,0,20,1
10.17,0.14,0.30,-0.05,0.02,0.00,0.00,0.00,0,20,1
10.10,0.31,0.25,-0.07,0.05,0.02,0.00,0.00,0,20,1
10.21,0.27,0.25,-0.07,0.04,-0.01,0.00,0.00,0,20,1
11.55,0.02,0.70,-0.05,0.02,-0.22,512.57,949.73,0,20,1
12.15,0.91,-0.54,0.07,-0.23,-1.19,0.00,412.53,0,20,1
9.88,2.07,-0.37,-0.36,0.21,-1.51,421.22,571.91,0,20,1
10.76,3.12,0.03,-0.49,-0.05,-1.81,424.53,676.77,0,20,1
9.34,4.53,-0.57,-0.72,-0.18,-2.37,537.85,836.13,0,20,1
7.04,5.94,-0.10,-0.98,-0.65,-2.64,585.83,959.07,0,20,1
4.36,7.82,0.48,-1.31,-1.44,-2.74,870.05,1244.56,0,20,1
0.69,4.74,3.28,-1.61,-0.81,-2.86,836.62,1224.04,0,20,1
-0.64,7.69,4.05,-1.05,-0.88,-1.92,842.97,1127.15,0,20,1
-3.07,7.65,5.13,-0.64,-0.13,-0.70,1019.73,1337.36,0,20,1
-2.06,8.44,5.04,-0.36,0.25,-0.41,1006.90,1208.50,0,20,1
-0.43,8.59,4.28,-0.12,0.20,-0.07,807.24,1015.81,0,20,1
-1.74,8.92,4.16,0.42,0.17,0.96,691.65,954.10,0,20,1
-4.58,6.93,5.17,0.81,1.71,1.85,431.84,498.60,0,20,1
0.29,6.24,2.96,1.36,1.82,3.72,394.36,490.93,0,20,1
4.47,5.75,2.53,1.06,1.92,4.02,403.83,492.62,0,20,1
12.34,4.19,-0.10,0.51,0.57,3.40,511.14,726.40,0,20,1
12.12,1.50,0.09,0.20,-0.73,2.31,323.78,364.09,0,20,1
11.48,0.86,-0.06,0.05,-0.09,1.49,0.00,330.24,0,20,1
11.63,0.46,-0.05,0.13,0.04,1.17,0.00,323.02,0,20,1
13.76,-0.11,-0.51,-0.03,-0.23,-0.02,0.00,0.00,0,20,1
9.88,0.52,0.11,-0.08,-0.28,0.12,0.00,0.00,0,20,1
10.20,0.11,0.31,-0.16,0.20,-0.07,0.00,0.00,0,20,1
9.89,0.40,0.39,-0.14,0.08,-0.01,0.00,0.00,0,20,1
10.13,0.33,0.49,-0.08,0.09,-0.03,0.00,0.00,0,20,1
10.27,0.47,0.41,-0.03,0.00,0.02,0.00,0.00,0,20,1
10.12,0.43,0.65,-0.06,0.03,0.03,0.00,0.00,0,20,1
10.11,0.35,0.68,-0.06,0.06,-0.01,0.00,0.00,0,20,1
11.40,0.38,0.77,-0.08,-0.02,-0.17,0.00,535.00,0,20,1
13.09,0.98,-0.07,-0.14,0.14,-1.32,352.39,503.64,0,20,1
12.05,2.22,-0.40,-0.37,0.10,-2.00,438.91,628.38,0,20,1
10.17,3.52,-0.44,-0.77,-0.34,-2.78,766.82,1081.95,0,20,1
7.26,5.50,0.71,-0.98,-0.78,-2.98,570.38,784.78,0,20,1
2.26,6.16,1.34,-1.38,-0.77,-3.23,672.69,993.50,0,20,1
0.41,5.63,2.18,-1.75,-0.67,-2.93,879.32,1181.70,0,20,1
-1.34,7.77,4.00,-1.15,-0.34,-2.30,655.69,889.79,0,20,1
-0.76,8.53,4.79,-0.52,-0.26,-0.90,1291.68,1645.98,1,20,1
-1.88,7.73,4.36,0.81,1.20,2.25,826.23,869.79,0,21,1
-0.76,7.32,3.58,1.05,0.37,2.87,532.05,580.44,0,21,1
3.84,7.57,1.15,0.93,0.54,3.07,396.44,463.50,0,21,1
6.02,5.88,0.99,0.46,0.71,2.91,804.18,1103.39,0,21,1
8.57,3.96,1.52,0.13,0.86,2.45,411.87,495.08,0,21,1
10.25,2.68,1.51,0.12,-0.28,1.81,365.07,518.26,0,21,1
9.87,2.13,1.34,0.22,0.02,1.32,0.00,303.24,0,21,1
10.07,1.01,0.76,0.15,-0.61,1.39,0.00,0.00,0,21,1
13.09,0.12,0.11,0.03,0.07,0.85,0.00,300.58,0,21,1
10.86,0.10,0.57,-0.13,0.06,-0.14,0.00,0.00,0,21,1
9.79,0.37,0.68,-0.04,0.02,0.08,0.00,0.00,0,21,1
10.14,0.07,0.75,-0.13,0.14,-0.03,0.00,0.00,0,21,1
10.15,0.13,0.58,-0.05,0.02,0.03,0.00,0.00,0,21,1
10.07,0.19,0.75,-0.08,0.06,-0.03,0.00,0.00,0,21,1
10.28,0.11,0.79,-0.06,0.02,-0.05,0.00,0.00,0,21,1
11.02,0.37,0.57,-0.07,0.00,-0.28,0.00,0.00,0,21,1
12.23,0.97,0.28,-0.13,0.05,-1.00,328.17,544.66,0,21,1
11.21,1.91,0.34,-0.13,-0.05,-1.63,459.32,668.72,0,21,1
9.82,3.05,0.23,-0.41,0.06,-1.94,394.20,628.66,0,21,1
10.56,4.72,0.06,-0.85,-0.42,-2.56,486.58,654.62,0,21,1
7.74,5.42,0.34,-1.16,-0.55,-3.34,494.47,694.63,0,21,1
1.08,5.66,2.51,-1.14,-1.21,-3.27,757.02,1059.17,0,21,1
0.15,7.59,2.81,-1.37,-1.04,-2.95,1073.63,1452.87,1,21,1
-3.83,7.76,5.84,0.20,0.24,0.75,559.17,628.69,0,22,1
-3.21,7.22,5.52,0.70,0.83,1.70,428.10,460.53,0,22,1
-0.03,6.94,3.40,1.30,0.58,2.65,344.12,420.72,0,22,1
3.02,6.98,1.55,1.12,0.98,2.88,0.00,347.12,0,22,1
7.45,6.49,0.02,0.66,-0.09,2.95,523.70,809.72,0,22,1
9.99,5.09,0.25,0.25,0.61,2.33,435.22,606.04,0,22,1
10.28,3.26,0.91,0.20,0.04,1.57,0.00,327.92,0,22,1
10.95,2.50,0.39,0.14,-0.12,1.09,330.17,414.24,0,22,1
9.75,2.14,0.21,0.04,-0.16,0.93,0.00,0.00,0,22,1
10.78,1.58,0.40,-0.02,0.05,0.83,0.00,0.00,0,22,1
11.77,1.19,0.33,-0.05,-0.01,0.40,0.00,0.00,0,22,1
10.01,1.07,0.86,-0.11,0.30,-0.05,0.00,0.00,0,22,1
10.18,1.00,0.39,-0.06,-0.03,0.10,0.00,0.00,0,22,1
9.98,0.95,0.84,-0.10,0.12,0.01,0.00,0.00,0,22,1
10.04,0.96,0.61,-0.06,0.10,0.01,0.00,0.00,0,22,1
9.96,0.96,0.82,-0.09,0.10,0.02,0.00,0.00,0,22,1
10.08,0.97,0.78,-0.10,0.10,-0.00,0.00,0.00,0,22,1
9.73,0.99,0.77,-0.07,0.15,-0.01,0.00,0.00,0,22,1
11.10,0.97,0.83,-0.07,-0.01,-0.07,0.00,0.00,0,22,1
11.21,1.18,1.30,-0.01,-0.05,-0.50,428.90,666.86,0,22,1
13.05,1.98,-0.69,-0.17,-0.32,-1.30,412.24,561.27,0,22,1
9.74,3.18,0.24,-0.56,-0.06,-1.89,489.83,619.58,0,22,1
9.81,4.41,-0.33,-0.92,-0.24,-2.44,628.73,913.54,0,22,1
8.00,5.79,0.59,-1.24,-0.67,-2.95,548.36,735.86,0,22,1
4.72,7.01,1.30,-1.28,-1.12,-3.06,509.56,629.45,0,22,1
2.13,4.34,4.77,-1.42,-0.90,-3.01,622.34,923.77,0,22,1
-1.92,6.09,3.74,-0.91,-0.30,-2.08,849.43,1179.30,0,22,1
-1.69,7.64,4.30,-0.66,-0.85,-1.00,1086.07,1429.03,1,22,1
-2.84,7.00,4.46,0.69,0.88,2.37,694.14,730.37,0,23,1
-0.97,6.93,3.73,0.92,0.31,3.05,457.39,489.34,0,23,1
4.34,7.19,1.79,0.86,0.41,3.12,382.66,490.66,0,23,1
6.83,6.09,1.11,0.59,0.06,2.60,706.87,1056.87,0,23,1
10.11,5.45,0.61,0.34,0.10,1.82,494.90,641.50,0,23,1
9.91,4.50,1.14,0.26,-0.13,1.16,378.98,450.55,0,23,1
8.83,3.79,0.91,0.35,-0.32,0.96,337.67,389.64,0,23,1
9.77,2.77,0.28,0.43,-0.41,1.23,379.69,474.66,0,23,1
10.56,1.87,-0.64,0.15,-0.08,1.10,0.00,323.63,0,23,1
11.81,1.05,0.19,-0.06,0.04,0.73,0.00,0.00,0,23,1
11.64,1.15,0.02,-0.09,0.07,-0.01,0.00,0.00,0,23,1
9.77,1.09,0.39,-0.08,0.01,0.07,0.00,0.00,0,23,1
9.92,1.05,0.20,-0.06,0.12,-0.00,0.00,0.00,0,23,1
10.01,1.03,0.42,-0.05,0.05,0.01,0.00,0.00,0,23,1
10.08,1.06,0.39,-0.07,0.10,-0.01,0.00,0.00,0,23,1
10.25,1.11,0.35,-0.06,0.02,0.02,0.00,0.00,0,23,1
10.46,1.04,0.40,-0.07,0.07,-0.03,0.00,314.01,0,23,1
11.56,1.07,0.65,-0.07,0.09,-0.42,0.00,428.21,0,23,1
11.63,1.89,-0.30,-0.16,-0.14,-1.11,349.91,543.68,0,23,1
10.06,2.86,0.52,-0.40,0.19,-1.49,353.54,534.84,0,23,1
9.60,4.03,0.34,-0.53,-0.10,-1.70,404.09,518.95,0,23,1
8.40,5.25,0.73,-0.77,-0.04,-2.00,371.30,567.07,0,23,1
7.09,6.40,1.09,-0.85,-0.18,-2.18,536.02,694.26,0,23,1
5.12,7.19,1.50,-0.94,-0.52,-2.47,420.79,560.83,0,23,1
0.95,6.66,2.81,-1.05,-0.38,-2.14,605.79,919.53,0,23,1
2.19,8.90,2.80,-0.98,-0.51,-1.83,525.15,704.49,0,23,1
-0.62,7.89,4.86,-0.89,-0.38,-1.71,862.48,1243.44,0,23,1
-4.48,6.82,5.83,-0.66,0.03,-1.20,925.78,1229.41,0,23,1
-2.64,7.23,5.58,-0.31,-0.03,-0.27,1130.47,1503.37,1,23,1
-1.33,7.79,4.89,0.49,0.74,1.08,684.03,761.16,0,24,1
-1.30,6.91,4.32,0.80,0.40,2.12,454.92,532.52,0,24,1
0.99,7.72,2.70,1.13,0.07,2.73,551.61,624.74,0,24,1
4.36,7.09,1.09,0.86,0.28,2.71,451.84,541.10,0,24,1
8.04,6.39,1.23,0.63,0.39,2.26,486.09,668.62,0,24,1
8.35,5.96,1.20,0.59,0.28,1.64,438.80,523.58,0,24,1
8.41,4.73,0.34,0.46,-0.27,1.47,416.25,567.44,0,24,1
9.00,3.37,-0.03,0.16,-0.33,1.59,357.55,422.89,0,24,1
10.33,2.15,0.53,0.19,-0.22,1.45,315.31,381.62,0,24,1
13.13,1.66,-0.57,-0.03,-0.10,0.60,0.00,330.24,0,24,1
9.45,2.01,0.50,-0.07,0.41,-0.09,0.00,0.00,0,24,1
11.05,1.64,-0.10,-0.09,-0.06,0.10,0.00,0.00,0,24,1
9.48,1.61,0.20,-0.09,0.09,0.01,0.00,0.00,0,24,1
10.22,1.59,0.45,-0.06,0.10,-0.01,0.00,0.00,0,24,1
9.91,1.73,0.37,-0.04,0.08,0.03,0.00,0.00,0,24,1
9.93,1.59,0.48,-0.05,0.07,0.03,0.00,0.00,0,24,1
10.11,1.67,0.47,-0.07,0.10,-0.02,0.00,371.19,0,24,1
10.18,1.88,0.39,-0.03,0.09,-0.10,0.00,437.15,0,24,1
12.08,2.03,0.45,-0.07,-0.11,-0.65,548.32,831.00,0,24,1
11.71,2.66,-0.39,-0.24,0.22,-1.40,325.54,427.80,0,24,1
10.11,3.86,-0.23,-0.55,-0.28,-1.89,584.98,860.42,0,24,1
9.15,5.33,-0.44,-0.87,-0.24,-2.46,578.18,819.71,0,24,1
6.61,7.37,0.52,-1.08,-1.08,-2.89,581.40,814.73,0,24,1
4.66,7.64,-0.83,-1.57,-2.82,-3.30,936.28,1362.21,0,24,1
-0.52,8.37,2.97,-1.43,-1.11,-1.97,835.57,1071.17,0,24,1
-0.04,7.15,5.14,-1.08,0.20,-1.79,1109.09,1430.84,1,24,1
-2.85,7.72,5.45,0.05,0.44,0.34,793.99,924.69,0,25,1
-0.99,8.36,4.39,0.35,0.37,0.97,620.41,670.75,0,25,1
-2.70,6.15,4.32,0.85,0.71,2.37,372.06,420.02,0,25,1
0.33,6.94,3.59,1.16,0.73,3.24,308.31,393.74,0,25,1
6.44,7.35,1.24,1.03,0.81,3.10,321.21,443.02,0,25,1
8.22,5.23,1.17,0.66,0.46,2.83,606.16,799.19,0,25,1
9.49,3.74,0.58,0.39,0.32,2.22,343.56,405.53,0,25,1
9.87,2.96,0.36,0.07,-0.09,1.50,316.19,367.56,0,25,1
11.04,2.05,0.86,0.17,-0.25,1.17,0.00,301.57,0,25,1
11.28,1.47,-0.05,0.02,0.02,0.96,0.00,0.00,0,25,1
12.83,0.72,0.58,-0.02,-0.22,0.06,0.00,334.40,0,25,1
8.90,1.33,0.95,-0.08,-0.06,0.05,0.00,0.00,0,25,1
9.61,1.05,0.75,-0.08,0.06,-0.03,0.00,0.00,0,25,1
10.05,1.14,0.65,-0.09,0.05,0.02,0.00,0.00,0,25,1
10.01,1.16,0.51,-0.08,0.09,0.01,0.00,0.00,0,25,1
10.08,1.15,0.85,-0.07,0.02,0.02,0.00,0.00,0,25,1
10.28,1.27,0.79,-0.10,0.12,-0.10,0.00,0.00,0,25,1
11.03,1.40,0.71,-0.03,0.00,-0.36,0.00,372.58,0,25,1
12.43,2.06,-0.25,-0.19,-0.10,-1.02,0.00,409.42,0,25,1
10.15,2.96,0.11,-0.39,-0.34,-1.48,380.46,557.26,0,25,1
8.92,4.07,0.62,-0.53,-0.51,-1.61,401.22,554.77,0,25,1
8.46,5.21,0.57,-0.65,-0.13,-1.88,317.28,383.76,0,25,1
7.78,6.61,1.25,-0.93,-0.00,-2.50,630.50,913.85,0,25,1
4.07,5.86,2.38,-1.07,-0.67,-3.28,656.84,909.64,0,25,1
-0.09,7.12,2.72,-1.36,-0.96,-2.64,738.69,1030.63,0,25,1
-0.95,6.16,4.27,-1.18,-0.32,-2.30,810.60,1106.21,0,25,1
-4.51,6.73,5.92,-0.66,0.03,-1.23,892.43,1204.32,0,25,1
-3.16,7.92,5.57,-0.32,-0.03,-0.30,787.35,1051.87,0,25,1
-3.01,7.66,5.73,-0.23,0.05,-0.21,844.79,1057.86,0,25,1
-2.64,7.49,5.41,-0.09,0.04,0.16,731.75,904.77,0,25,1
-3.15,7.65,5.52,0.17,0.61,0.52,509.92,587.23,0,25,1
-4.24,6.44,6.75,0.70,1.09,1.55,487.10,670.16,0,25,1
-1.85,5.58,5.63,1.41,1.00,2.97,517.11,670.85,0,25,1
1.82,6.66,2.50,1.45,0.90,3.75,482.81,557.32,0,25,1
7.06,5.84,1.14,0.70,0.60,3.43,395.73,483.22,0,25,1
10.52,3.37,1.64,0.52,0.81,2.63,397.90,533.87,0,25,1
8.75,2.94,0.60,0.37,0.26,1.95,370.66,459.78,0,25,1
10.49,2.37,0.57,0.12,-0.46,1.56,314.65,365.03,0,25,1
12.25,1.10,0.38,0.21,0.03,1.20,317.30,390.96,0,25,1
12.18,0.72,-0.06,-0.17,0.32,0.41,320.18,404.73,0,25,1
9.80,0.66,1.78,-0.07,0.27,-0.07,0.00,0.00,0,25,1
10.54,0.50,0.84,-0.05,0.14,-0.04,0.00,0.00,0,25,1
10.33,0.66,1.18,-0.07,0.12,-0.09,0.00,0.00,0,25,1
10.19,0.79,0.96,-0.02,-0.12,-0.11,0.00,0.00,0,25,1
9.76,1.27,0.79,-0.10,0.30,-0.09,0.00,0.00,0,25,1
9.92,0.84,1.83,-0.05,0.05,-0.01,0.00,0.00,0,25,1
13.36,1.10,0.86,-0.11,-0.10,-0.58,431.55,622.60,0,25,1
11.80,1.94,0.84,-0.23,0.08,-1.68,405.11,534.67,0,25,1
10.19,2.96,0.17,-0.49,-0.20,-1.99,731.23,1212.90,0,25,1
9.88,4.06,-0.11,-0.97,-0.39,-2.77,621.23,793.24,0,25,1
7.09,5.73,0.62,-1.24,-1.04,-3.00,977.60,1334.39,0,25,1
3.57,5.38,1.32,-1.88,-0.58,-3.45,875.52,1117.63,0,25,1
-1.41,6.66,4.96,-1.08,-0.47,-1.99,743.58,946.27,0,25,1
-1.49,6.82,4.90,-0.85,-0.33,-1.70,1087.33,1404.95,1,25,1
-2.61,6.90,5.64,0.74,0.61,1.82,789.21,864.83,0,26,1
-0.60,7.01,4.36,1.08,0.64,2.57,537.29,585.47,0,26,1
2.39,6.90,2.06,1.08,0.91,2.96,401.78,477.47,0,26,1
4.89,6.04,1.76,0.83,0.52,2.94,404.74,575.36,0,26,1
9.69,5.91,0.53,0.59,0.29,2.55,697.80,1085.45,0,26,1
11.18,3.73,0.69,0.31,-0.29,1.82,406.90,521.69,0,26,1
9.58,2.74,0.83,0.44,-0.71,1.29,345.46,435.95,0,26,1
9.40,2.33,-0.34,0.10,0.22,1.26,334.79,376.50,0,26,1
11.45,1.10,0.59,0.02,0.25,0.85,0.00,317.16,0,26,1
12.51,1.14,-0.22,-0.01,-0.14,-0.07,0.00,370.46,0,26,1
10.76,1.23,0.79,-0.14,-0.16,0.02,0.00,0.00,0,26,1
9.88,1.25,0.72,-0.12,0.02,-0.01,0.00,0.00,0,26,1
10.01,1.20,0.97,-0.10,0.08,-0.03,0.00,0.00,0,26,1
10.15,1.26,0.90,-0.09,0.05,-0.02,0.00,0.00,0,26,1
10.15,1.42,1.01,-0.10,0.02,-0.00,0.00,0.00,0,26,1
10.96,1.37,1.19,-0.09,-0.05,-0.13,332.15,604.36,0,26,1
13.22,1.98,0.56,-0.08,-0.43,-1.03,369.63,546.60,0,26,1
9.75,2.83,0.46,-0.35,-0.10,-1.76,0.00,350.54,0,26,1
9.55,4.18,-0.54,-0.74,-0.10,-1.78,467.08,683.66,0,26,1
8.65,5.14,0.30,-0.99,-0.53,-1.97,614.75,836.55,0,26,1
7.16,5.95,1.29,-1.17,-0.62,-2.38,637.69,870.58,0,26,1
4.38,7.92,1.36,-1.31,-0.96,-2.48,876.75,1238.55,0,26,1
0.02,7.20,3.67,-1.25,-0.29,-2.07,918.33,1245.09,0,26,1
0.10,7.41,4.07,-1.05,-0.40,-1.77,871.37,1150.06,0,26,1
-1.72,7.72,4.73,-0.82,-0.05,-1.35,678.81,980.12,0,26,1
-3.11,7.07,5.74,-0.60,0.03,-0.77,1175.88,1549.71,1,26,1
-3.73,7.07,5.77,0.22,0.28,0.72,782.86,825.86,0,27,1
-3.17,7.81,5.29,0.78,0.68,1.67,488.73,541.26,0,27,1
-2.41,7.44,4.64,1.18,0.84,2.17,334.63,383.04,0,27,1
0.80,7.83,2.71,1.14,0.11,2.80,733.17,965.45,0,27,1
3.80,7.50,1.33,0.88,0.61,2.73,445.75,567.80,0,27,1
9.07,5.74,0.63,0.78,0.97,2.16,509.46,739.18,0,27,1
8.58,4.50,0.48,0.51,0.37,1.75,335.62,396.61,0,27,1
8.83,3.92,0.45,0.36,0.11,1.60,307.27,388.94,0,27,1
10.87,2.65,0.05,0.28,0.25,1.35,394.46,594.77,0,27,1
13.19,2.17,-0.71,-0.13,0.13,0.36,379.27,536.17,0,27,1
9.19,2.67,1.20,-0.28,0.31,-0.01,0.00,0.00,0,27,1
10.18,2.29,0.30,-0.22,0.12,0.13,0.00,0.00,0,27,1
9.51,2.09,1.71,-0.32,0.23,-0.01,0.00,0.00,0,27,1
9.78,2.15,1.79,-0.27,0.24,-0.02,0.00,0.00,0,27,1
9.62,2.39,2.04,-0.15,0.19,-0.04,0.00,0.00,0,27,1
9.35,2.43,2.19,-0.07,0.12,-0.01,0.00,0.00,0,27,1
9.51,2.48,2.29,-0.06,0.11,-0.03,0.00,0.00,0,27,1
9.33,2.41,2.11,-0.09,0.10,-0.02,0.00,0.00,0,27,1
9.56,2.44,2.10,-0.10,0.06,-0.03,0.00,0.00,0,27,1
9.51,2.40,2.05,-0.12,0.04,0.02,0.00,0.00,0,27,1
9.58,2.32,1.93,-0.10,-0.01,0.05,0.00,0.00,0,27,1
9.42,2.31,1.94,-0.09,0.01,0.02,0.00,0.00,0,27,1
9.55,2.35,1.92,-0.10,0.01,0.02,0.00,0.00,0,27,1
