ax,ay,az,gx,gy,gz,mav,rms,label_kontraksi,repetisi,id_orang
1.25,-0.88,8.78,0.51,0.76,0.23,1845.17,2292.63,1,0,1
1.34,0.21,8.61,0.46,0.84,0.64,1055.91,1291.18,0,1,1
1.51,-0.26,9.19,0.42,0.66,0.58,1033.48,1233.08,0,1,1
0.43,-0.17,9.17,0.39,0.55,0.68,1156.84,1359.16,0,1,1
0.37,0.42,8.73,0.24,0.40,0.70,1251.98,1487.42,1,1,1
-0.30,0.86,9.05,0.00,0.39,0.64,1274.31,1487.58,1,1,1
-0.84,1.22,9.75,-0.04,0.20,0.78,1343.19,1526.96,1,1,1
-0.91,0.64,9.89,-0.04,0.11,0.88,1460.50,1600.33,1,1,1
-1.37,0.20,10.19,-0.14,-0.15,1.15,1192.62,1332.08,0,2,1
0.72,-0.17,10.23,-0.28,-1.20,1.51,915.50,1017.32,0,2,1
3.10,-0.41,9.17,-0.03,-1.01,1.13,1202.39,1321.61,1,2,1
4.02,-0.19,9.76,0.34,-1.84,0.73,700.17,764.15,0,3,1
5.60,0.16,9.12,0.97,-1.37,0.13,465.77,504.43,0,3,1
6.94,1.32,7.43,1.46,-0.52,-0.49,434.00,469.06,0,3,1
4.06,1.41,6.51,1.45,0.13,-0.91,365.18,422.97,0,3,1
7.02,4.21,3.63,1.28,0.49,-0.99,516.46,681.48,0,3,1
3.92,6.87,7.60,1.17,1.03,-1.26,594.60,771.44,0,3,1
5.32,8.71,5.24,1.99,0.86,-1.44,628.34,866.50,0,3,1
0.19,10.10,3.74,2.50,0.50,-0.99,607.18,750.96,0,3,1
-0.56,10.50,-0.00,2.46,0.59,-0.00,603.40,721.61,0,3,1
-0.51,8.50,-1.47,1.85,0.56,1.13,661.17,778.92,0,3,1
2.25,7.69,-3.88,1.00,0.93,2.05,544.24,623.61,0,3,1
4.21,6.59,-3.20,0.49,0.35,2.46,445.81,510.52,0,3,1
6.45,4.56,-3.96,0.54,0.59,2.55,450.03,499.05,0,3,1
7.81,2.39,-4.38,0.10,0.41,2.54,441.33,585.16,0,3,1
11.41,0.53,-4.31,-0.61,0.74,1.96,525.65,673.19,0,3,1
12.26,0.08,-3.52,-1.15,-0.12,1.08,679.20,956.66,0,3,1
10.11,-0.04,-0.78,-1.22,0.40,0.38,699.71,992.37,0,3,1
9.88,-0.02,-1.30,-0.61,-0.16,0.42,1596.64,1922.35,1,3,1
10.07,-0.72,-2.27,-0.17,-0.06,0.20,906.31,1099.96,0,4,1
10.06,-0.25,-2.29,0.01,-0.05,0.08,881.42,1092.80,0,4,1
9.44,-0.06,-1.73,-0.16,0.06,-0.04,874.66,946.28,0,4,1
10.61,0.14,-1.93,-0.12,0.15,0.04,683.57,932.48,0,4,1
12.10,0.04,-2.07,0.02,-0.08,-0.31,869.53,1126.47,0,4,1
12.44,0.63,-2.98,-0.08,0.05,-1.17,989.84,1214.37,0,4,1
11.76,1.84,-4.30,-0.52,-0.14,-1.79,981.18,1241.97,0,4,1
9.90,3.25,-3.80,-1.27,-0.24,-2.41,1041.94,1287.20,0,4,1
6.42,5.43,-2.07,-1.63,-0.66,-2.56,1285.29,1556.32,1,4,1
4.16,6.81,-0.09,-1.57,-0.55,-2.31,1295.39,1483.04,1,4,1
0.97,7.04,1.79,-0.86,0.17,-2.26,1439.69,1572.35,1,4,1
-0.29,7.90,1.66,-0.54,0.09,-1.36,1407.60,1534.52,1,4,1
-1.81,9.25,1.64,0.01,0.09,0.02,1192.14,1366.16,0,5,1
-0.16,9.58,0.36,-0.08,-0.10,0.15,1228.14,1397.54,1,5,1
-2.26,8.17,2.09,0.20,0.08,1.02,1453.29,1598.77,1,5,1
0.87,9.01,1.55,1.01,0.68,2.14,1445.71,1600.60,1,5,1
4.74,8.15,-0.67,1.09,0.29,2.44,1425.29,1543.17,1,5,1
6.51,6.25,-1.05,1.17,0.78,2.46,1383.34,1452.90,1,5,1
9.39,3.84,-1.57,0.95,0.09,2.39,1318.53,1476.92,1,5,1
10.35,2.10,-3.09,0.53,0.24,1.68,1241.33,1386.84,1,5,1
9.74,1.48,-1.75,0.35,0.22,1.23,952.60,1149.84,0,6,1
9.34,0.56,-2.26,0.35,-0.24,1.50,992.32,1082.05,0,6,1
11.38,-1.46,-2.73,0.24,0.23,1.40,541.12,619.78,0,6,1
12.07,-2.27,-2.47,0.02,0.26,0.66,725.17,992.72,0,6,1
9.99,-1.80,-1.46,-0.09,0.03,-0.16,717.27,910.60,0,6,1
8.87,-2.24,-1.13,-0.06,0.07,-0.06,617.17,737.72,0,6,1
10.30,-1.57,-1.99,-0.05,0.03,0.10,510.11,637.32,0,6,1
10.60,-2.21,-0.84,-0.17,0.10,-0.27,669.42,901.34,0,6,1
12.43,-2.41,-1.50,-0.09,0.08,-0.95,759.91,954.58,0,6,1
13.00,-0.44,-2.25,-0.30,0.10,-2.04,662.32,785.00,0,6,1
10.94,2.09,-2.38,-0.78,-0.03,-2.24,779.44,972.20,0,6,1
9.35,3.38,-0.19,-0.97,-0.19,-2.37,902.60,1193.44,0,6,1
7.99,4.92,-1.21,-0.94,-0.76,-2.36,1021.36,1350.13,0,6,1
4.83,6.88,-0.21,-1.01,-0.16,-2.34,1731.39,1958.91,1,6,1
2.59,5.86,0.57,-1.12,-0.60,-2.33,1223.24,1384.71,1,6,1
1.25,9.24,0.90,-1.23,-0.39,-1.98,1325.26,1501.33,1,6,1
-1.47,9.28,2.81,-0.65,-0.31,-0.62,1159.15,1355.79,0,7,1
-1.73,10.22,2.08,-0.20,0.05,-0.06,988.97,1171.04,0,7,1
-0.65,9.15,2.73,-0.05,-0.03,0.14,1097.82,1291.78,0,7,1
-2.67,8.09,3.38,0.27,0.57,0.66,1357.06,1526.76,1,7,1
-1.03,8.25,1.99,0.52,0.91,1.04,1343.47,1485.62,1,7,1
1.10,7.58,0.74,1.13,0.60,2.77,967.73,1096.38,0,8,1
6.20,7.85,-1.10,1.04,1.65,2.73,1066.76,1219.12,0,8,1
7.22,6.10,-0.96,0.86,0.38,2.65,760.39,878.82,0,8,1
10.24,4.67,-1.04,0.53,0.91,2.14,1162.42,1459.49,1,8,1
11.20,2.49,-1.35,0.24,0.02,1.61,1200.03,1395.68,1,8,1
9.58,1.07,-0.46,0.15,0.14,1.26,846.44,948.26,0,9,1
11.14,0.16,-1.06,0.06,0.11,0.97,808.31,896.07,0,9,1
11.20,-0.09,-0.79,0.01,-0.06,0.55,562.83,594.14,0,9,1
11.45,-0.30,-1.36,0.01,0.21,0.02,512.83,651.15,0,9,1
9.59,-0.02,-1.15,-0.05,0.07,-0.09,339.99,396.76,0,9,1
9.69,0.09,-0.76,-0.11,0.14,0.01,381.59,495.02,0,9,1
10.83,-0.32,-0.93,-0.09,0.03,-0.05,431.49,557.99,0,9,1
12.44,-0.03,-1.23,-0.14,0.04,-0.55,549.17,733.06,0,9,1
11.93,0.99,-2.19,-0.24,-0.10,-1.26,642.99,978.31,0,9,1
10.98,2.26,-2.43,-0.61,-0.16,-1.78,543.71,740.32,0,9,1
9.38,3.87,-1.09,-0.92,-0.20,-2.23,1386.57,1775.31,1,9,1
8.74,5.74,-0.96,-1.12,-0.38,-2.58,1151.94,1427.75,1,9,1
1.34,6.14,1.15,-0.76,-0.46,-2.25,1221.46,1516.88,1,9,1
3.00,8.68,-0.51,-0.99,-0.48,-2.23,1349.20,1602.51,1,9,1
0.68,7.75,2.09,-0.90,-0.57,-1.85,1327.87,1490.54,1,9,1
-1.90,8.04,2.96,-0.45,0.04,-0.88,1289.77,1470.81,1,9,1
-1.09,10.15,2.59,-0.10,0.34,0.03,1096.24,1247.75,0,10,1
-1.39,8.09,2.52,0.32,-0.16,0.95,884.21,994.02,0,10,1
-1.64,8.70,2.33,0.76,0.48,1.93,863.09,1009.17,0,10,1
3.35,8.34,1.04,1.14,0.65,2.58,1224.08,1458.02,1,10,1
5.56,7.94,-0.14,1.04,0.78,2.71,1359.27,1572.72,1,10,1
7.99,5.53,-1.21,0.74,0.38,2.57,1532.87,1710.97,1,10,1
11.08,2.48,-1.22,0.34,0.95,1.91,1380.09,1514.96,1,10,1
11.22,2.43,-0.22,0.27,-0.26,1.26,1009.68,1136.95,0,11,1
11.22,2.43,-0.22,0.27,-0.26,1.26,952.06,1001.43,0,11,1
10.11,0.99,-1.40,0.37,-0.20,1.13,638.29,670.16,0,11,1
10.86,0.51,-1.83,0.38,0.07,1.19,484.05,540.23,0,11,1
10.24,-0.86,-0.51,0.15,0.69,0.95,332.03,365.79,0,11,1
10.52,-1.58,-0.69,0.04,0.23,0.71,274.64,327.04,0,11,1
10.56,-1.37,-0.31,0.03,-0.07,0.29,466.59,662.32,0,11,1
10.67,-1.83,-0.36,-0.03,-0.46,-0.07,263.76,302.70,0,11,1
10.15,-1.72,-1.03,0.01,-0.08,-0.19,323.83,432.35,0,11,1
9.60,-1.30,-1.02,-0.03,0.08,0.00,308.26,434.76,0,11,1
10.54,-1.54,-0.53,0.02,0.07,0.14,294.87,407.31,0,11,1
12.48,-1.56,-1.22,-0.07,-0.06,-0.57,404.25,655.89,0,11,1
12.39,-0.89,-0.91,-0.23,-0.05,-1.35,430.23,618.95,0,11,1
12.82,0.17,-1.98,-0.61,0.16,-2.30,853.64,1198.56,0,11,1
12.60,2.32,-2.18,-1.20,0.09,-3.02,841.13,1154.75,0,11,1
6.79,4.56,-0.39,-1.13,-1.07,-3.49,754.26,1027.47,0,11,1
2.31,5.10,0.40,-1.26,-1.02,-2.73,994.55,1324.85,0,11,1
3.36,8.18,2.03,-1.41,-0.22,-2.49,1289.27,1646.00,1,11,1
-1.15,7.46,3.91,-0.75,0.55,-1.85,1305.79,1568.65,1,11,1
-4.08,8.41,4.98,-0.32,-0.02,-0.76,1094.60,1300.56,0,12,1
-4.51,8.55,4.80,0.32,0.15,0.95,923.19,1020.80,0,12,1
-3.36,7.98,4.11,0.69,0.14,1.85,865.39,975.90,0,12,1
1.18,8.10,1.69,0.98,0.16,2.44,773.81,929.72,0,12,1
4.30,6.80,1.09,1.05,0.72,2.45,793.51,982.59,0,12,1
6.99,6.72,-0.47,0.96,0.58,2.44,1624.28,1877.55,1,12,1
9.21,4.96,-1.47,0.67,0.08,2.13,1131.78,1357.44,0,13,1
9.70,2.65,-1.07,0.41,0.33,1.93,1007.85,1127.85,0,13,1
10.96,1.76,-0.29,0.25,0.20,1.59,846.71,945.33,0,13,1
11.40,0.28,-0.72,0.32,0.27,1.13,639.67,716.52,0,13,1
10.19,-0.20,-0.67,0.30,-0.16,0.89,549.00,691.14,0,13,1
11.73,-1.25,-1.27,0.17,0.22,0.64,513.29,600.18,0,13,1
11.42,-0.88,-1.48,-0.06,0.05,0.14,401.26,482.89,0,13,1
9.89,-1.36,-0.35,-0.16,0.06,-0.07,413.79,541.80,0,13,1
9.81,-0.98,-0.40,-0.09,-0.25,0.02,335.16,393.48,0,13,1
10.36,-1.21,-0.62,-0.19,-0.08,0.03,369.53,492.54,0,13,1
10.63,-0.96,-0.77,-0.12,0.07,-0.11,451.65,732.55,0,13,1
10.73,-0.62,-0.85,-0.12,-0.05,-0.24,516.70,715.04,0,13,1
12.00,-0.39,-1.45,-0.14,-0.01,-0.74,634.12,833.86,0,13,1
11.96,0.68,-2.13,-0.43,0.12,-1.51,523.31,694.35,0,13,1
10.42,1.34,0.10,-0.90,-0.09,-2.02,922.72,1302.29,0,13,1
10.82,3.33,-1.81,-0.83,0.09,-2.47,1075.17,1410.69,1,13,1
8.57,6.15,-1.79,-0.99,-0.33,-2.69,995.31,1224.78,0,14,1
2.61,5.32,0.48,-0.99,-0.57,-2.49,916.45,1175.77,0,14,1
2.56,8.65,0.30,-0.88,-0.98,-1.80,1294.06,1568.68,1,14,1
1.93,7.94,0.92,-0.97,-0.13,-2.18,1620.04,1793.36,1,14,1
-3.72,8.40,2.59,-0.38,-0.06,-0.85,1205.41,1376.67,1,14,1
-3.13,9.45,2.96,0.20,0.20,0.71,969.66,1112.21,0,15,1
-0.46,7.84,1.53,0.75,0.22,2.22,873.75,1028.87,0,15,1
3.30,7.64,0.74,0.98,0.40,2.74,807.60,991.07,0,15,1
6.46,7.03,-0.23,0.99,0.34,2.46,1185.04,1454.29,1,15,1
5.76,5.56,-0.16,0.86,0.13,2.12,1558.09,1753.01,1,15,1
9.14,5.19,-1.36,0.74,0.41,2.07,1352.16,1508.67,1,15,1
11.95,3.10,-2.73,0.31,0.23,1.55,1064.22,1172.07,0,16,1
10.73,1.72,-2.42,0.04,0.33,0.92,807.90,868.45,0,16,1
9.72,0.56,-1.49,0.18,0.15,0.92,664.41,794.46,0,16,1
11.12,0.82,-1.07,0.26,0.05,0.81,540.31,602.18,0,16,1
10.88,-0.77,-0.74,-0.02,-0.08,0.36,440.13,554.65,0,16,1
10.81,0.19,-1.30,-0.16,-0.02,0.07,428.70,628.58,0,16,1
10.03,-0.34,-0.20,-0.20,-0.14,0.18,398.61,485.99,0,16,1
10.60,-0.84,-0.66,-0.09,-0.13,0.24,506.67,663.65,0,16,1
10.93,-1.23,-0.93,-0.00,-0.04,0.19,386.92,487.70,0,16,1
10.44,-0.42,-1.43,-0.05,-0.03,0.14,409.41,515.35,0,16,1
10.23,-0.84,-1.50,-0.15,0.11,0.17,353.77,405.40,0,16,1
9.67,-1.57,-0.80,-0.20,0.07,0.25,338.39,499.35,0,16,1
9.86,-1.67,-1.19,-0.03,0.03,0.25,331.87,458.64,0,16,1
10.24,-1.68,-1.60,0.10,0.01,0.24,319.83,404.44,0,16,1
9.98,-1.96,-1.17,0.09,0.10,0.39,449.56,697.30,0,16,1
11.63,-2.86,-1.62,-0.12,-0.11,-0.20,826.95,1218.73,0,16,1
12.86,-1.65,-2.23,-0.34,-0.44,-1.27,774.91,1078.35,0,16,1
11.86,-0.41,-2.34,-0.71,-0.13,-2.22,979.83,1297.17,0,16,1
10.14,1.17,-2.07,-0.88,-0.49,-2.71,1150.87,1418.02,1,16,1
8.96,4.48,-2.33,-0.90,-0.76,-3.00,1202.37,1431.36,1,16,1
2.91,4.68,-1.23,-0.95,-0.64,-2.90,1519.62,1744.54,1,16,1
2.26,7.33,-1.05,-0.97,-0.33,-1.97,1418.37,1583.79,1,16,1
1.53,8.94,-0.23,-1.02,0.01,-2.20,1372.69,1570.97,1,16,1
-2.89,9.09,1.92,-0.58,-0.20,-0.89,1289.98,1448.67,1,16,1
-1.39,9.34,1.57,0.06,0.08,0.45,1329.84,1478.12,1,16,1
-1.55,8.19,2.10,0.49,-0.06,1.58,1131.22,1274.12,0,17,1
1.50,7.43,0.27,0.89,0.33,2.76,965.77,1122.66,0,17,1
5.36,5.94,-0.90,1.04,0.23,2.91,1435.94,1627.05,1,17,1
9.41,6.05,-1.44,0.52,0.90,2.29,1485.75,1635.33,1,17,1
10.01,3.37,-1.26,0.46,0.26,1.71,1318.67,1467.77,1,17,1
10.49,2.43,-1.37,0.39,0.19,1.48,1111.32,1220.97,0,18,1
10.83,0.96,-1.92,0.34,0.12,1.18,961.93,1059.94,0,18,1
10.86,0.39,-1.95,0.31,-0.15,0.96,736.91,814.28,0,18,1
10.40,0.46,-1.94,0.18,0.30,0.67,494.79,538.81,0,18,1
10.21,-0.48,-1.50,0.11,0.06,0.68,413.85,462.49,0,18,1
10.71,-1.77,-1.24,-0.11,0.21,0.36,393.16,577.35,0,18,1
10.57,-1.23,-1.01,-0.13,0.12,0.04,252.49,305.05,0,18,1
10.10,-1.40,-1.35,-0.08,0.03,-0.11,293.97,394.95,0,18,1
10.18,-1.24,-1.80,-0.06,0.11,-0.03,249.56,301.12,0,18,1
10.14,-1.16,-1.59,-0.11,0.06,-0.08,377.44,553.83,0,18,1
10.55,-1.03,-1.53,-0.14,0.03,-0.25,376.06,597.55,0,18,1
10.62,-0.95,-1.02,-0.14,-0.23,-0.51,583.15,811.65,0,18,1
12.50,-0.06,-1.97,-0.27,-0.12,-1.13,795.86,1154.83,0,18,1
10.92,1.40,-2.42,-0.56,-0.01,-1.78,554.30,685.88,0,18,1
9.65,3.09,-2.40,-0.73,0.01,-2.08,978.06,1247.46,0,18,1
8.06,4.33,-1.55,-0.69,-0.31,-2.50,778.23,955.69,0,18,1
7.04,6.35,-1.95,-0.99,-0.66,-2.56,1147.19,1474.47,1,18,1
4.32,6.40,-0.60,-0.95,-0.11,-2.49,1534.29,1756.63,1,18,1
0.79,8.00,1.12,-0.96,-0.16,-1.97,1298.37,1503.62,1,18,1
-0.92,8.87,2.17,-0.53,0.11,-1.17,1433.90,1576.49,1,18,1
-0.92,8.87,2.17,-0.53,0.11,-1.17,1288.59,1423.27,1,18,1
-2.35,9.32,2.38,-0.11,-0.03,0.15,1103.56,1192.47,0,19,1
-1.57,8.71,2.47,0.36,-0.13,1.48,1021.87,1176.94,0,19,1
0.30,8.17,1.60,0.94,0.28,2.59,1236.91,1421.58,1,19,1
5.83,7.13,-0.52,0.95,0.33,2.70,1402.17,1582.39,1,19,1
8.72,6.52,-2.27,0.63,0.61,1.96,1359.53,1517.10,1,19,1
7.75,4.50,-1.24,0.33,0.22,1.73,1286.26,1459.61,1,19,1
9.69,3.65,-1.32,0.22,0.61,1.58,1299.52,1376.10,1,19,1
11.43,2.77,-1.25,0.27,0.30,1.22,915.12,960.16,0,20,1
10.02,1.64,-0.77,0.27,0.15,0.83,639.68,727.10,0,20,1
10.04,1.22,-1.35,0.20,-0.05,0.91,437.76,486.35,0,20,1
11.00,0.11,-1.73,0.10,-0.18,0.83,494.43,749.38,0,20,1
12.51,-0.35,-2.37,-0.02,0.43,0.32,281.75,304.92,0,20,1
10.25,-0.19,-1.13,-0.19,-0.07,-0.18,234.59,278.93,0,20,1
9.38,0.11,-0.94,-0.11,0.10,-0.08,302.29,387.53,0,20,1
10.07,-0.18,-0.88,-0.09,0.04,0.11,288.01,408.41,0,20,1
10.55,-0.17,-0.97,-0.09,-0.01,-0.02,312.74,468.22,0,20,1
10.21,-0.06,-1.16,-0.08,0.02,-0.11,517.91,844.39,0,20,1
10.31,0.02,-1.07,-0.05,-0.07,-0.14,413.16,558.15,0,20,1
11.37,0.16,-1.43,-0.09,0.02,-0.37,342.05,449.33,0,20,1
11.76,0.72,-1.95,-0.25,-0.06,-0.97,588.91,865.98,0,20,1
11.36,1.90,-2.25,-0.42,0.16,-1.66,498.48,666.70,0,20,1
10.44,3.46,-2.13,-0.78,-0.08,-2.24,789.95,1002.57,0,20,1
7.42,4.41,0.09,-0.86,-0.39,-2.53,840.48,1100.49,0,20,1
7.56,7.19,-2.46,-0.90,-0.06,-2.69,859.42,1144.63,0,20,1
2.51,6.74,0.21,-1.09,-0.61,-2.34,1510.66,1791.41,1,20,1
.36,7.31,2.02,-0.84,0.22,-2.08,1508.93,1719.36,1,20,1
-1.93,8.67,1.82,-0.55,0.25,-1.53,1454.98,1613.45,1,20,1
-2.44,9.22,2.22,-0.15,0.10,-0.29,1299.88,1431.45,1,20,1
-3.04,9.45,1.78,-0.05,-0.02,0.45,1164.88,1283.23,0,21,1
-3.92,8.25,2.26,0.30,0.17,1.38,905.69,1034.73,0,21,1
-1.77,9.09,1.81,0.54,0.48,2.35,1054.77,1203.76,0,21,1
2.15,8.56,1.39,0.74,1.03,2.48,1157.01,1365.77,0,21,1
4.61,7.26,0.36,0.58,0.09,2.28,1569.77,1759.75,1,21,1
7.12,4.64,-0.33,0.74,0.08,2.22,1284.30,1451.72,1,21,1
9.97,3.50,-0.77,0.78,0.24,1.90,1189.94,1312.00,0,22,1
10.63,2.64,-1.65,0.53,-0.16,1.39,837.07,927.44,0,22,1
10.71,1.75,-1.99,0.26,0.09,1.06,688.38,780.30,0,22,1
12.28,1.37,-1.66,0.12,-0.03,0.58,708.05,844.55,0,22,1
11.16,1.31,-1.34,-0.15,-0.04,-0.12,549.32,636.48,0,22,1
9.56,1.57,-0.42,-0.16,-0.18,-0.22,440.33,554.24,0,22,1
9.69,2.01,-0.95,-0.04,-0.05,-0.05,342.27,407.98,0,22,1
10.21,2.15,-1.37,-0.03,-0.01,0.12,348.10,457.88,0,22,1
10.52,1.81,-1.44,-0.04,0.04,-0.02,382.61,509.21,0,22,1
9.65,1.82,-1.04,-0.09,0.02,-0.09,347.59,408.45,0,22,1
9.87,1.96,-0.94,-0.07,-0.03,-0.04,275.87,342.72,0,22,1
10.10,2.16,-0.86,-0.00,-0.07,-0.00,394.98,514.60,0,22,1
10.41,2.00,-1.30,0.05,-0.09,-0.06,414.85,618.54,0,22,1
11.20,2.13,-1.59,-0.05,0.00,-0.47,528.65,701.61,0,22,1
11.79,2.87,-2.46,-0.24,0.01,-1.13,560.73,798.10,0,22,1
10.46,3.72,-2.19,-0.58,-0.03,-1.73,972.48,1265.65,0,22,1
9.65,4.99,-1.49,-0.71,0.15,-2.35,788.72,1004.63,0,22,1
6.41,5.83,-0.81,-0.91,-0.24,-2.46,740.90,943.78,0,22,1
3.51,7.60,0.02,-0.98,-0.61,-2.17,1263.29,1601.03,1,22,1
1.74,6.99,1.42,-0.75,-0.42,-1.71,1422.21,1673.73,1,22,1
-0.04,8.90,0.94,-0.64,0.09,-1.72,1635.10,1779.32,1,22,1
-1.68,8.73,2.29,-0.41,0.05,-1.23,1202.08,1367.82,1,22,1
-3.82,9.03,2.77,-0.23,-0.12,-0.53,1197.01,1353.03,0,23,1
-3.48,9.38,1.94,-0.14,-0.11,-0.10,1058.61,1202.05,0,23,1
-3.95,9.14,2.44,0.06,-0.04,0.36,999.74,1139.73,0,23,1
-2.55,9.36,1.72,0.26,0.28,1.02,1010.65,1209.68,0,23,1
-2.07,8.28,1.36,0.55,0.28,1.93,1025.24,1304.23,0,23,1
0.00,7.99,1.42,0.89,0.11,2.58,1125.47,1351.02,0,23,1
4.32,7.07,-0.14,0.95,0.83,2.52,1138.76,1330.04,0,23,1
6.28,5.49,-1.24,0.88,0.43,2.80,1040.80,1230.48,0,23,1
10.88,4.29,-2.10,0.54,0.33,2.31,955.12,1081.66,0,23,1
12.67,2.90,-2.44,0.02,0.01,1.16,605.58,696.09,0,23,1
11.15,2.59,-1.66,-0.14,-0.04,0.17,656.95,685.78,0,23,1
7.45,2.50,-0.66,0.09,-0.03,0.22,602.35,747.71,0,23,1
9.98,3.15,-1.85,0.29,0.31,0.50,516.58,693.62,0,23,1
10.85,2.23,-2.06,-0.02,0.25,0.06,553.07,790.58,0,23,1
9.86,2.33,-1.64,-0.14,0.09,-0.09,384.57,426.62,0,23,1
9.66,2.83,-1.21,-0.15,-0.07,0.07,353.55,452.99,0,23,1
10.04,2.58,-1.39,-0.09,0.11,0.13,267.37,337.18,0,23,1
10.16,2.29,-1.23,-0.08,-0.03,0.10,266.71,332.05,0,23,1
9.79,2.15,-1.12,-0.08,0.03,0.03,305.16,418.56,0,23,1
11.19,2.28,-1.82,-0.02,-0.07,-0.08,328.60,460.74,0,23,1
11.66,2.41,-1.91,-0.24,-0.02,-0.77,383.50,535.40,0,23,1
11.44,3.22,-1.80,-0.54,-0.14,-1.65,493.84,645.49,0,23,1
9.94,4.53,-1.18,-0.88,-0.21,-2.47,476.65,631.55,0,23,1
5.82,5.60,-0.66,-1.06,-0.44,-2.71,674.34,1060.22,0,23,1
2.55,6.27,0.83,-0.96,0.01,-2.42,1220.18,1604.93,1,23,1
1.58,5.89,1.03,-1.00,-0.38,-2.17,1297.95,1592.04,1,23,1
-2.82,7.61,2.22,-0.65,0.38,-2.05,1466.15,1727.52,1,23,1
-3.84,8.71,2.40,-0.41,0.03,-1.11,1174.96,1376.27,0,24,1
-4.82,9.21,2.73,-0.05,0.37,-0.12,1154.84,1298.60,0,24,1
-4.28,8.78,2.57,0.08,0.14,0.69,989.94,1133.02,0,24,1
-1.76,8.90,1.97,0.35,0.15,1.45,1068.58,1266.66,0,24,1
-0.50,8.35,1.46,0.81,0.04,2.32,1123.31,1309.18,0,24,1
2.55,7.42,0.88,1.19,0.21,2.71,1119.02,1334.83,0,24,1
5.67,7.32,-0.88,1.08,0.32,2.40,910.64,1046.62,0,24,1
7.69,5.29,-2.10,0.76,0.39,2.28,1187.06,1389.68,1,24,1
8.96,3.71,-2.21,0.51,0.37,2.22,907.99,1018.71,0,25,1
9.89,1.73,-2.30,0.44,0.14,2.05,812.86,881.59,0,25,1
12.13,0.41,-2.52,0.27,0.47,1.38,681.60,757.88,0,25,1
12.88,0.04,-2.71,-0.02,0.17,0.40,481.64,540.18,0,25,1
10.28,0.31,-1.59,-0.11,0.02,-0.24,368.44,426.14,0,25,1
9.22,0.60,-1.18,-0.03,-0.07,-0.06,267.51,317.72,0,25,1
10.31,0.52,-1.59,0.06,-0.08,0.12,287.28,376.38,0,25,1
10.74,0.62,-1.89,-0.03,-0.01,0.02,276.48,329.77,0,25,1
10.02,0.61,-1.75,-0.07,0.08,0.02,325.41,447.28,0,25,1
9.75,0.47,-1.81,-0.07,0.16,0.04,342.88,572.20,0,25,1
9.75,0.47,-1.81,-0.07,0.16,0.04,278.63,349.93,0,25,1
10.18,0.62,-1.69,-0.12,0.08,-0.01,497.88,695.93,0,25,1
11.92,0.52,-1.88,-0.16,-0.05,-0.34,475.56,642.79,0,25,1
13.57,0.93,-2.33,-0.35,-0.07,-1.36,606.85,774.88,0,25,1
11.80,2.46,-2.81,-0.82,-0.11,-2.42,514.75,628.35,0,25,1
7.97,3.68,-1.01,-1.07,-0.33,-2.75,788.09,1092.30,0,25,1
5.81,6.09,-0.89,-0.97,-0.64,-2.55,649.17,949.42,0,25,1
2.90,7.91,-0.04,-0.94,-0.51,-2.22,1280.55,1610.42,1,25,1
2.80,10.06,0.01,-1.09,-0.31,-2.06,1384.47,1646.27,1,25,1
0.10,7.38,1.95,-0.99,0.09,-2.29,1484.59,1696.54,1,25,1
-4.06,9.69,2.90,-0.20,0.89,-0.38,1115.69,1248.84,0,26,1
-2.29,9.08,2.29,0.10,0.29,0.66,942.25,1053.18,0,26,1
-2.87,8.99,1.70,0.41,0.28,1.70,872.36,971.21,0,26,1
0.46,8.30,0.67,0.57,-0.12,2.40,795.52,907.51,0,26,1
3.78,8.27,0.18,0.55,1.00,2.36,805.87,956.59,0,26,1
6.41,6.76,0.42,0.62,0.19,2.14,1245.97,1547.95,1,26,1
7.72,6.12,-0.04,0.53,-0.09,1.77,1080.24,1283.83,0,27,1
8.76,4.60,-0.77,0.50,0.04,1.58,895.60,988.85,0,27,1
8.31,2.99,-1.24,0.53,0.01,1.85,707.65,761.43,0,27,1
10.52,1.24,-1.86,0.42,-0.16,1.82,612.20,645.79,0,27,1
13.17,0.18,-1.73,0.09,0.10,0.81,476.11,576.67,0,27,1
11.59,0.43,-1.52,-0.10,-0.04,-0.07,267.60,302.76,0,27,1
9.68,0.95,-1.56,-0.10,0.06,-0.18,271.60,374.32,0,27,1
9.50,1.05,-1.56,-0.05,0.20,-0.03,275.96,355.00,0,27,1
10.17,1.09,-1.49,-0.14,0.10,0.01,265.85,334.71,0,27,1
10.43,1.08,-1.20,-0.21,0.04,-0.08,329.05,492.10,0,27,1
10.01,0.98,-1.01,-0.23,-0.03,-0.10,252.26,296.40,0,27,1
10.13,1.19,-1.07,-0.11,0.02,-0.03,518.74,802.18,0,27,1
11.14,1.09,-1.66,-0.07,0.08,-0.20,383.75,487.98,0,27,1
11.43,1.44,-1.52,-0.18,-0.03,-0.80,686.32,1105.13,0,27,1
11.00,2.53,-1.78,-0.36,-0.03,-1.47,479.40,657.80,0,27,1
10.61,3.98,-2.57,-0.65,0.04,-1.97,615.42,784.93,0,27,1
7.98,4.75,-1.13,-0.90,-0.17,-2.33,759.73,1072.68,0,27,1
5.82,6.37,-0.42,-0.96,-0.30,-2.51,651.54,809.91,0,27,1
1.79,6.99,0.92,-0.84,-0.19,-2.42,802.52,1079.48,0,27,1
-0.10,8.48,0.63,-0.84,-0.04,-2.01,1048.54,1393.65,1,27,1
-1.40,8.03,2.17,-0.88,-0.38,-1.80,1251.63,1586.81,1,27,1
-2.90,8.54,3.23,-0.67,-0.41,-1.46,992.77,1167.93,0,28,1
-4.53,8.80,3.30,-0.12,0.46,-0.62,967.30,1136.01,0,28,1
-4.49,8.97,2.62,-0.04,-0.10,0.07,789.76,913.81,0,28,1
-4.44,9.15,2.65,0.12,0.26,0.53,707.10,865.84,0,28,1
-4.34,8.19,2.41,0.36,0.18,1.34,747.71,955.25,0,28,1
-2.95,7.88,2.43,0.67,0.01,2.33,1012.82,1291.90,0,28,1
1.37,7.81,0.73,0.95,0.10,2.93,1042.10,1274.53,0,28,1
5.42,7.60,-0.70,0.64,1.38,2.77,819.84,990.48,0,28,1
7.67,5.31,-0.15,0.51,-0.02,2.66,973.00,1183.37,0,28,1
9.03,3.39,-0.30,0.43,0.37,2.36,825.24,998.95,0,28,1
10.60,1.99,-0.67,0.31,-0.05,2.07,764.33,929.55,0,28,1
11.84,0.27,-1.32,0.28,0.12,1.50,675.73,764.21,0,28,1
12.30,-0.43,-1.59,0.12,0.10,0.86,600.27,692.18,0,28,1
11.43,-0.12,-1.02,0.03,0.09,0.23,471.80,547.30,0,28,1
10.14,-0.10,-1.03,-0.03,0.07,-0.06,466.04,557.11,0,28,1
9.98,-0.03,-0.97,-0.07,0.01,-0.03,612.89,764.44,0,28,1
9.97,0.02,-1.04,-0.13,0.02,-0.01,499.96,608.63,0,28,1
9.95,0.11,-0.74,-0.13,0.13,0.04,479.46,599.68,0,28,1
10.26,-0.05,-0.72,-0.11,0.03,0.02,482.51,586.11,0,28,1
10.18,0.01,-0.63,-0.09,-0.01,-0.01,459.93,585.84,0,28,1
11.09,0.01,-0.92,-0.09,0.03,-0.16,700.58,879.40,0,28,1
11.40,0.26,-0.90,-0.19,-0.05,-0.66,648.51,838.11,0,28,1
10.85,1.12,-1.00,-0.29,-0.07,-1.02,818.47,1076.56,0,28,1
11.41,2.21,-1.18,-0.36,0.08,-1.43,817.07,1010.30,0,28,1
11.02,3.44,-1.74,-0.64,-0.02,-1.93,813.90,1012.12,0,28,1
10.33,4.60,-1.42,-0.85,-0.40,-2.27,674.24,860.28,0,28,1
6.13,5.82,0.15,-0.92,-0.30,-2.54,676.60,877.97,0,28,1
3.72,7.12,0.79,-0.80,-0.18,-2.51,1189.37,1545.54,1,28,1
1.50,8.04,0.63,-0.77,-0.71,-2.15,1061.80,1289.36,0,29,1
-1.05,7.37,1.97,-0.69,0.34,-1.86,1349.45,1606.20,1,29,1
-2.64,8.86,1.81,-0.50,-0.29,-1.45,1021.18,1182.20,0,30,1
-5.12,8.48,3.14,-0.04,0.68,-0.40,1032.88,1186.04,0,30,1
-4.35,9.14,2.39,-0.08,0.00,-0.04,936.50,1151.42,0,30,1
-4.17,8.75,2.38,0.04,0.19,0.09,945.98,1121.05,0,30,1
-4.59,8.32,2.26,0.11,-0.04,0.82,908.37,1167.02,0,30,1
-4.99,8.44,2.39,0.49,0.33,2.19,1129.38,1438.84,1,30,1
0.59,8.51,0.81,0.75,-0.22,2.96,1129.21,1373.83,0,31,1
5.43,7.49,-0.20,0.49,0.36,2.29,1110.28,1306.28,0,31,1
5.86,5.19,0.30,0.61,0.14,2.19,1236.14,1441.09,1,31,1
7.55,6.18,-0.48,0.62,0.12,2.17,1225.27,1386.90,1,31,1
9.58,4.15,-0.96,0.56,0.34,1.92,941.85,1086.18,0,32,1
9.88,2.59,-0.49,0.44,0.15,1.62,950.68,1124.03,0,32,1
10.40,1.65,-1.30,0.28,-0.01,1.34,801.99,919.47,0,32,1
12.48,0.81,-1.39,0.13,0.46,0.62,814.31,990.95,0,32,1
10.77,0.91,-0.92,-0.01,-0.12,0.02,731.54,828.54,0,32,1
9.84,0.96,-0.96,-0.04,0.11,-0.06,652.57,797.09,0,32,1
10.43,0.92,-1.29,-0.08,0.12,0.03,689.01,818.75,0,32,1
10.51,1.10,-0.88,-0.08,0.11,0.01,839.64,1035.14,0,32,1
10.07,0.96,-0.81,-0.07,0.14,-0.01,721.41,843.34,0,32,1
10.27,1.00,-0.64,-0.03,0.01,-0.00,696.87,848.60,0,32,1
10.83,1.03,-1.09,0.00,0.04,-0.20,631.79,764.42,0,32,1
11.76,1.30,-1.47,-0.13,-0.08,-0.62,847.77,1062.20,0,32,1
11.31,2.12,-1.86,-0.32,-0.04,-1.22,957.16,1132.51,0,32,1
10.09,3.34,-1.28,-0.61,-0.15,-1.81,1108.75,1351.20,0,32,1
9.20,4.62,-1.21,-0.84,-0.30,-2.22,888.46,1092.20,0,32,1
6.63,6.13,-1.02,-0.90,-0.54,-2.45,691.23,852.21,0,32,1
4.68,7.90,-0.56,-0.78,-0.08,-2.52,1043.47,1300.25,0,32,1
1.67,8.02,0.81,-0.96,-0.10,-2.49,1525.60,1766.52,1,32,1
-1.46,8.03,2.17,-0.79,-0.40,-1.99,1059.23,1230.84,0,33,1
-3.26,7.29,2.57,-0.43,-0.21,-1.11,1096.64,1307.59,0,33,1
-3.47,9.59,2.79,-0.18,-0.08,-0.14,1113.25,1297.92,0,33,1
-2.65,9.42,2.40,-0.03,0.19,0.11,889.51,1073.58,0,33,1
-3.02,8.91,2.43,-0.01,0.13,0.23,995.33,1186.73,0,33,1
-2.54,9.35,2.25,0.07,0.09,0.43,953.34,1132.27,0,33,1
-2.54,9.35,2.25,0.07,0.09,0.43,956.35,1171.73,0,33,1
-2.97,8.08,2.03,0.39,0.17,1.26,962.19,1181.06,0,33,1
-1.98,7.74,1.69,0.73,0.18,2.34,993.01,1198.06,0,33,1
2.27,7.24,0.50,1.08,0.05,3.06,904.80,1062.49,0,33,1
6.25,7.23,-0.79,1.09,0.16,3.05,801.34,995.79,0,33,1
9.49,5.51,-1.76,0.62,0.55,2.58,896.97,1042.03,0,33,1
10.19,3.29,-1.40,0.41,-0.78,1.98,665.69,752.20,0,33,1
9.80,1.26,-1.34,0.32,0.52,1.56,569.15,644.71,0,33,1
12.44,0.54,-2.12,0.16,0.25,1.06,475.23,548.56,0,33,1
11.53,0.43,-1.82,0.04,0.14,0.25,413.05,480.36,0,33,1
10.38,0.51,-1.75,0.00,0.19,-0.08,301.49,340.66,0,33,1
9.56,0.81,-1.32,0.01,0.10,-0.02,274.10,320.39,0,33,1
9.77,0.83,-1.38,-0.09,0.13,0.04,313.22,421.39,0,33,1
10.30,0.80,-1.39,-0.13,0.04,-0.02,246.56,357.39,0,33,1
10.02,0.74,-1.19,-0.12,-0.02,0.03,278.02,434.09,0,33,1
10.54,0.56,-1.44,-0.09,-0.06,0.07,375.03,644.24,0,33,1
11.39,0.70,-1.45,-0.13,-0.12,-0.25,653.08,921.51,0,33,1
11.91,1.12,-1.92,-0.25,0.04,-0.95,438.58,569.33,0,33,1
12.71,2.28,-2.52,-0.57,-0.07,-1.76,633.42,925.74,0,33,1
9.80,3.34,-1.75,-0.90,-0.36,-2.49,603.88,846.92,0,33,1
6.61,4.99,-0.14,-0.92,-0.02,-2.55,619.51,846.85,0,33,1
5.61,6.61,-0.34,-0.90,-0.11,-2.41,751.20,983.55,0,33,1
4.00,9.13,-0.46,-0.90,-0.06,-2.43,1176.73,1517.39,1,33,1
-0.05,7.91,1.88,-0.72,0.26,-2.20,1361.33,1650.51,1,33,1
-1.99,8.63,1.65,-0.44,0.41,-1.37,1212.71,1467.97,1,33,1
-3.63,9.19,2.23,-0.24,0.26,-0.47,1137.01,1333.93,0,34,1
-3.12,9.82,1.97,-0.18,0.00,0.16,1058.05,1211.87,0,34,1
-2.30,8.97,2.69,-0.05,0.01,0.37,1033.46,1235.09,0,34,1
-2.56,8.94,2.70,0.15,0.08,0.66,1036.01,1275.89,0,34,1
-2.49,8.85,2.31,0.56,0.36,1.49,1204.53,1469.02,1,34,1
-0.98,8.34,1.58,0.80,0.14,2.27,1090.98,1327.98,0,35,1
2.98,7.40,-0.31,0.93,0.10,2.79,1105.03,1256.45,0,35,1
5.97,5.71,-1.09,0.69,0.40,2.86,965.49,1090.75,0,35,1
8.80,3.72,-0.98,0.59,0.51,2.84,871.45,1014.38,0,35,1
11.14,1.81,-0.93,0.47,0.22,2.22,900.20,988.27,0,35,1
13.79,0.72,-2.71,0.17,0.44,1.00,806.76,895.24,0,35,1
10.97,0.87,-1.23,-0.10,-0.14,0.10,392.40,436.94,0,35,1
9.82,1.35,-0.54,-0.07,0.16,-0.11,302.18,338.76,0,35,1
9.70,1.53,-0.84,-0.01,0.05,0.03,310.15,386.49,0,35,1
10.13,1.29,-0.99,-0.07,0.08,0.06,239.57,279.26,0,35,1
10.28,1.42,-0.89,-0.13,0.17,-0.00,266.65,369.08,0,35,1
10.28,1.54,-1.02,-0.07,0.13,-0.01,188.67,228.71,0,35,1
10.01,1.35,-0.77,-0.01,0.04,0.02,262.95,411.21,0,35,1
10.76,1.51,-1.45,-0.04,0.05,-0.12,366.43,542.12,0,35,1
11.18,1.72,-1.13,-0.14,0.07,-0.47,703.91,1065.90,0,35,1
11.74,2.45,-1.53,-0.28,-0.15,-1.00,466.96,596.06,0,35,1
12.78,3.51,-2.19,-0.61,0.02,-1.94,555.76,759.91,0,35,1
7.50,4.25,-0.48,-0.81,-0.36,-2.48,547.09,703.57,0,35,1
6.01,6.33,-0.15,-0.83,-0.35,-2.33,789.47,1111.14,0,35,1
3.48,6.96,0.42,-0.91,-0.71,-2.44,773.30,1035.02,0,35,1
2.50,8.19,0.73,-0.61,-0.09,-2.02,1438.32,1781.73,1,35,1
-1.54,9.01,1.63,-0.44,0.11,-1.53,1569.16,1772.90,1,35,1
-2.41,9.25,1.78,-0.43,-0.26,-1.05,1312.13,1488.43,1,35,1
-2.68,9.64,1.79,-0.23,-0.08,-0.31,1169.88,1351.35,0,36,1
-2.58,8.97,1.76,-0.14,-0.50,0.04,1221.68,1373.88,1,36,1
-2.28,9.02,1.95,-0.11,-0.37,0.22,1123.20,1320.76,0,37,1
-2.80,8.73,2.06,0.20,0.09,0.95,1068.36,1257.27,0,37,1
-1.59,9.04,1.77,0.43,0.06,1.94,1119.40,1364.69,0,37,1
1.95,8.34,0.96,0.53,0.25,2.35,1126.06,1321.59,0,37,1
4.23,7.32,0.48,0.48,0.09,2.30,1133.85,1309.60,0,37,1
7.47,6.85,-0.63,0.74,0.11,2.21,1100.80,1269.06,0,37,1
7.94,5.23,-0.46,0.60,0.12,2.02,1012.76,1133.86,0,37,1
9.79,3.22,-1.85,0.51,0.02,1.94,911.71,1014.55,0,37,1
11.78,1.95,-2.74,0.63,0.25,1.60,731.85,832.80,0,37,1
12.10,0.86,-2.36,0.17,0.26,0.90,665.75,742.06,0,37,1
9.98,0.96,-0.65,-0.00,0.25,0.40,523.45,584.33,0,37,1
11.26,0.28,-0.92,0.18,-0.06,0.37,392.93,474.59,0,37,1
11.55,0.13,-1.70,0.05,-0.14,0.12,446.98,511.72,0,37,1
9.88,0.31,-1.50,-0.17,0.23,-0.13,480.99,588.59,0,37,1
9.46,0.56,-0.71,-0.21,0.10,-0.01,472.36,555.89,0,37,1
10.14,0.17,-0.44,-0.11,-0.13,0.09,449.69,520.30,0,37,1
11.16,0.29,-1.12,-0.06,0.02,-0.05,507.22,634.38,0,37,1
11.61,0.65,-1.00,-0.13,-0.20,-0.36,674.62,920.59,0,37,1
11.62,0.96,-2.18,-0.24,0.45,-1.07,582.56,741.18,0,37,1
10.94,2.00,-2.00,-0.56,-0.01,-1.71,742.80,1031.28,0,37,1
9.46,3.82,-0.82,-0.71,-0.11,-2.08,584.67,655.46,0,37,1
8.84,5.18,-0.83,-0.74,-0.11,-2.63,1326.42,1676.75,1,37,1
4.48,5.72,-0.27,-0.76,-0.21,-2.65,1588.85,1812.92,1,37,1
1.97,7.54,-0.09,-0.77,-0.56,-2.10,924.09,1074.78,0,38,1
0.41,8.34,0.97,-0.93,-0.26,-1.91,1129.54,1365.75,0,38,1
-1.10,8.68,1.97,-0.61,-0.08,-1.06,1452.37,1628.40,1,38,1
-1.58,8.54,2.86,-0.37,-0.01,-0.57,1079.25,1276.28,0,39,1
-2.42,9.49,2.71,-0.05,0.20,0.00,1116.33,1268.22,0,39,1
-2.43,9.09,2.52,-0.11,-0.08,0.23,973.75,1146.58,0,39,1
-2.36,8.78,2.78,0.22,-0.08,1.09,1025.42,1185.69,0,39,1
-0.74,8.61,2.13,0.57,0.12,1.90,1004.41,1198.66,0,39,1
2.09,7.90,0.87,0.71,0.36,2.33,1157.08,1347.45,0,39,1
4.54,6.82,0.91,0.74,0.71,2.53,989.38,1111.62,0,39,1
5.86,5.82,0.88,0.71,0.25,2.48,827.65,976.11,0,39,1
8.92,4.30,-0.27,0.81,-0.01,2.48,716.60,842.68,0,39,1
11.62,2.66,-1.65,0.49,0.24,1.83,702.20,833.31,0,39,1
12.17,1.02,-1.54,0.12,0.10,1.06,575.43,640.43,0,39,1
10.81,1.12,-0.17,-0.15,-0.22,0.21,465.79,507.11,0,39,1
10.69,1.14,-0.50,-0.09,-0.08,0.08,294.44,326.41,0,39,1
10.02,1.13,-0.67,-0.14,0.05,0.13,254.52,338.80,0,39,1
10.24,1.00,-0.50,-0.12,0.00,0.10,221.68,244.78,0,39,1
10.37,0.86,-0.17,-0.12,-0.07,-0.01,191.49,244.98,0,39,1
10.58,1.11,-0.22,-0.13,-0.08,-0.09,224.72,291.06,0,39,1
10.03,1.05,-0.25,-0.09,0.07,-0.02,183.27,211.23,0,39,1
11.98,1.17,-0.89,-0.08,-0.11,-0.08,535.19,906.16,0,39,1
13.42,1.25,-1.26,-0.31,0.21,-1.19,842.17,1254.04,0,39,1
10.35,2.63,-0.88,-0.60,-0.02,-1.83,631.53,887.69,0,39,1
10.35,2.63,-0.88,-0.60,-0.02,-1.83,566.99,667.08,0,39,1
9.38,3.96,-0.76,-0.84,-0.01,-2.11,938.07,1255.93,0,39,1
8.04,5.67,-0.39,-0.90,0.05,-2.50,950.60,1193.49,0,39,1
4.13,5.92,1.32,-0.87,-0.41,-2.49,778.59,972.69,0,39,1
3.11,8.18,0.41,-0.83,-0.24,-1.96,1420.96,1717.68,1,39,1
0.96,8.19,2.04,-0.80,0.09,-1.88,1300.91,1538.06,1,39,1
-1.39,8.08,3.46,-0.40,0.47,-1.71,1419.52,1606.97,1,39,1
-3.77,9.56,3.11,-0.20,0.02,-0.65,1186.53,1350.04,0,40,1
-3.74,8.88,3.22,-0.00,0.14,0.03,1005.18,1195.65,0,40,1
-2.90,9.29,2.59,-0.05,-0.01,0.24,913.76,1075.53,0,40,1
-3.23,7.96,2.95,0.38,0.39,1.47,964.95,1212.50,0,40,1
-1.56,8.16,2.14,0.77,0.32,2.56,1049.12,1256.81,0,40,1
2.89,7.26,0.69,0.90,-0.08,3.10,1103.67,1319.28,0,40,1
6.08,5.81,-0.04,0.80,0.67,3.15,1099.03,1251.34,0,40,1
8.98,3.87,0.24,0.61,0.32,2.83,811.42,904.90,0,40,1
11.10,2.11,-1.03,0.59,0.24,2.19,676.50,777.73,0,40,1
11.92,0.76,-1.57,0.42,0.08,1.47,573.45,634.76,0,40,1
11.62,-0.04,-0.80,0.20,-0.10,0.84,466.27,547.25,0,40,1
11.09,-0.00,-0.68,0.07,-0.13,0.26,440.53,496.11,0,40,1
10.66,0.14,-0.76,-0.01,-0.04,0.06,507.63,641.35,0,40,1
10.05,0.12,-0.49,-0.11,0.11,-0.01,497.24,661.57,0,40,1
10.22,-0.02,-0.51,-0.13,0.18,-0.01,619.64,802.15,0,40,1
10.48,0.01,-0.60,-0.08,0.07,0.03,594.46,776.83,0,40,1
10.63,0.05,-0.83,-0.05,0.09,-0.06,590.65,706.17,0,40,1
10.43,0.19,-0.75,-0.08,0.10,-0.19,601.63,756.91,0,40,1
10.94,0.56,-0.96,-0.17,-0.10,-0.30,582.66,688.84,0,40,1
11.78,0.78,-1.02,-0.26,-0.22,-0.78,694.08,979.68,0,40,1
11.42,1.77,-1.82,-0.45,-0.05,-1.46,834.44,1155.58,0,40,1
8.97,2.92,-0.66,-0.70,0.04,-1.86,1020.57,1263.68,0,40,1
8.01,4.12,0.35,-0.75,-0.13,-2.11,1071.76,1355.55,0,40,1
8.45,6.74,-0.67,-0.73,-0.12,-2.14,930.86,1084.10,0,40,1
5.10,7.30,-0.37,-0.83,-0.22,-2.20,922.98,1137.96,0,40,1
3.58,7.88,0.95,-0.87,-0.27,-1.89,1280.74,1563.76,1,40,1
3.06,9.89,0.77,-0.75,-0.77,-1.48,1303.58,1566.79,1,40,1
-0.52,7.21,3.22,-0.40,0.05,-1.14,1044.76,1254.57,0,41,1
-2.39,9.26,3.03,-0.14,0.13,-0.22,1025.18,1235.59,0,41,1
-1.69,9.28,2.85,0.21,0.36,0.39,1123.52,1306.57,0,41,1
-1.94,9.13,2.38,0.24,-0.03,1.05,1020.82,1209.25,0,41,1
-0.30,9.03,1.85,0.54,0.08,1.93,1073.13,1276.13,0,41,1
2.58,7.96,1.25,0.70,0.44,2.36,975.11,1159.28,0,41,1
4.20,6.73,0.98,0.67,0.37,2.40,1003.18,1170.48,0,41,1
8.31,5.25,-0.24,0.74,0.36,2.36,1018.92,1203.41,0,41,1
8.68,3.45,-0.33,0.62,0.08,2.02,761.41,845.49,0,41,1
11.17,2.71,-1.45,0.47,0.08,1.71,812.42,909.71,0,41,1
11.44,1.47,-0.99,0.15,-0.08,1.00,528.21,558.16,0,41,1
11.21,1.05,-0.30,0.02,0.20,0.42,355.80,376.87,0,41,1
11.07,0.99,-1.09,-0.03,0.02,0.03,235.86,250.83,0,41,1
10.34,0.98,-0.87,-0.03,0.05,-0.01,283.57,453.14,0,41,1
10.21,1.13,-0.86,-0.07,0.19,0.01,173.79,211.27,0,41,1
10.05,1.28,-0.73,-0.09,0.18,0.03,224.25,367.16,0,41,1
9.87,1.05,-0.37,-0.09,0.10,0.01,152.15,222.22,0,41,1
10.15,1.29,-0.45,-0.07,0.04,-0.02,194.80,304.79,0,41,1
10.73,1.26,-0.51,-0.12,0.05,-0.14,429.03,757.30,0,41,1
11.28,1.33,-0.28,-0.17,-0.12,-0.50,416.48,699.58,0,41,1
11.57,2.13,-0.89,-0.28,0.07,-0.96,447.65,701.92,0,41,1
11.31,2.96,-0.55,-0.45,0.11,-1.62,434.14,700.16,0,41,1
9.33,4.48,-0.92,-0.62,-0.19,-2.12,586.04,780.27,0,41,1
7.68,6.00,0.00,-0.77,-0.28,-2.36,488.96,673.70,0,41,1
5.49,6.37,0.67,-0.79,-0.35,-2.41,1304.34,1772.11,1,41,1
3.19,7.68,0.88,-0.88,-0.36,-2.39,824.67,1042.54,0,42,1
0.51,8.36,1.90,-0.67,0.29,-1.98,1206.77,1497.57,1,42,1
-2.05,7.07,2.82,-0.52,-0.01,-1.34,1216.53,1457.36,1,42,1
-2.41,9.10,2.59,-0.20,0.20,-0.26,1108.72,1287.98,0,43,1
-2.58,9.17,3.50,-0.11,-0.03,0.10,1090.28,1303.81,0,43,1
-1.98,8.97,3.50,0.15,0.18,0.52,1037.63,1221.08,0,43,1
-1.26,8.90,2.95,0.40,0.13,0.96,1090.03,1276.78,0,43,1
-0.74,8.44,2.29,0.81,0.31,1.62,1099.71,1334.96,0,43,1
0.44,8.19,0.81,1.01,0.46,2.25,1128.06,1334.38,0,43,1
3.79,6.57,-1.13,1.00,0.45,2.85,953.46,1077.28,0,43,1
7.11,5.53,-1.51,0.60,0.38,3.17,981.08,1134.16,0,43,1
9.47,2.60,-0.67,0.20,0.66,2.93,856.11,952.09,0,43,1
11.73,0.46,-0.56,0.34,0.17,2.19,759.15,802.88,0,43,1
12.84,-0.48,-1.05,0.14,0.26,0.91,479.34,524.74,0,43,1
11.83,-0.31,-1.14,-0.05,0.28,-0.15,375.10,406.19,0,43,1
9.89,0.40,-0.50,-0.02,-0.19,-0.18,271.23,347.18,0,43,1
10.17,0.46,-0.68,0.00,-0.03,0.08,210.64,253.21,0,43,1
10.62,0.39,-0.86,-0.06,0.13,0.03,208.45,227.63,0,43,1
10.04,0.41,-0.47,-0.07,0.08,0.01,157.62,176.40,0,43,1
10.49,0.40,-0.96,-0.05,0.10,0.03,152.74,196.39,0,43,1
10.15,0.36,-0.77,-0.12,-0.07,-0.18,152.73,204.55,0,43,1
9.70,0.98,-0.73,-0.08,-0.03,-0.09,147.13,184.58,0,43,1
11.47,0.83,-1.25,-0.09,-0.05,-0.20,435.98,666.76,0,43,1
12.62,1.22,-1.99,-0.35,-0.09,-1.14,389.95,558.93,0,43,1
11.43,2.27,-1.50,-0.69,0.22,-1.97,540.86,744.33,0,43,1
9.09,3.54,-0.05,-0.79,0.08,-2.62,414.04,512.28,0,43,1
7.04,5.31,-0.10,-0.85,0.03,-2.72,686.30,909.38,0,43,1
4.90,7.38,-0.51,-0.66,-0.37,-2.47,482.19,570.32,0,43,1
1.09,8.25,1.03,-0.64,-0.21,-2.13,811.95,1114.22,0,43,1
-0.55,7.91,1.44,-0.75,-0.56,-1.89,1108.18,1454.12,1,43,1
-2.51,9.88,1.84,-0.48,0.01,-1.01,1193.65,1453.95,1,43,1
-2.15,9.30,2.52,-0.24,-0.05,-0.17,1064.17,1332.04,0,44,1
-1.11,9.15,2.75,-0.03,0.21,0.07,878.24,1058.26,0,44,1
-2.10,8.51,2.86,0.25,0.45,0.72,864.80,1033.29,0,44,1
-1.02,8.43,1.97,0.59,0.23,1.67,936.34,1145.59,0,44,1
1.05,8.57,0.75,0.81,0.12,2.31,878.47,1036.32,0,44,1
3.17,7.72,-0.08,0.84,0.44,2.76,942.99,1104.44,0,44,1
6.65,6.78,-0.76,0.53,0.46,2.87,783.86,906.31,0,44,1
9.72,4.19,-0.50,0.30,0.24,2.65,803.65,916.12,0,44,1
9.76,2.09,0.45,0.27,0.20,2.04,710.77,747.72,0,44,1
11.89,0.81,-0.64,0.25,0.37,1.52,490.65,523.14,0,44,1
13.23,0.11,-0.23,0.09,-0.14,0.55,355.30,387.72,0,44,1
10.57,0.60,-0.39,0.03,-0.08,-0.15,251.35,270.51,0,44,1
10.57,0.60,-0.39,0.03,-0.08,-0.15,250.39,309.99,0,44,1
9.68,0.95,-0.28,-0.01,0.12,-0.03,184.21,203.18,0,44,1
9.73,0.67,-0.44,-0.07,0.14,0.04,169.12,201.15,0,44,1
10.14,0.50,-0.10,-0.16,0.11,-0.01,144.11,190.94,0,44,1
10.20,0.66,-0.01,-0.09,0.09,0.00,127.07,156.98,0,44,1
10.07,0.56,-0.10,-0.07,0.08,-0.04,149.67,191.72,0,44,1
10.46,0.84,-0.57,-0.04,0.07,-0.05,351.86,533.15,0,44,1
11.59,1.05,-0.97,-0.17,-0.14,-0.45,447.28,661.03,0,44,1
11.05,1.47,-0.83,-0.31,-0.10,-0.94,447.06,594.87,0,44,1
12.16,2.76,-0.84,-0.45,-0.15,-1.51,451.04,644.12,0,44,1
9.79,3.62,-0.50,-0.62,-0.11,-2.26,610.89,874.02,0,44,1
8.59,4.82,-1.04,-0.83,-0.16,-2.67,590.44,810.09,0,44,1
4.95,6.05,0.15,-0.88,-0.14,-2.86,840.67,1119.20,0,44,1
0.64,6.71,1.45,-0.85,-0.34,-2.59,875.01,1133.36,0,44,1
-1.77,7.94,2.25,-0.73,-0.17,-1.97,1290.36,1656.76,1,44,1
-2.16,9.26,2.56,-0.38,0.27,-1.07,1187.45,1429.33,1,44,1
-3.00,8.80,2.76,-0.24,0.02,-0.54,1029.18,1237.31,0,45,1
-3.40,9.45,2.66,0.06,0.25,0.40,937.16,1121.99,0,45,1
-2.80,9.53,2.38,0.14,0.32,0.87,922.85,1118.43,0,45,1
-1.90,8.88,2.70,0.53,0.39,1.67,931.83,1128.72,0,45,1
0.62,7.40,1.74,1.00,0.09,2.40,858.99,1015.13,0,45,1
3.52,7.45,-0.83,0.87,0.50,2.93,956.75,1174.73,0,45,1
6.67,5.48,-0.21,0.46,0.59,3.16,775.70,944.81,0,45,1
9.40,3.62,0.45,0.28,0.01,2.89,773.48,895.91,0,45,1
12.12,0.90,0.23,0.18,0.05,2.12,636.61,674.59,0,45,1
11.82,0.48,-0.38,-0.07,0.14,0.92,446.19,467.97,0,45,1
11.84,0.49,-0.00,-0.18,0.17,0.08,286.91,303.97,0,45,1
10.29,0.89,-0.27,-0.27,0.10,-0.17,180.87,206.53,0,45,1
9.50,0.79,-0.16,-0.44,0.24,-0.02,176.74,201.34,0,45,1
10.30,0.94,0.13,-0.47,0.21,0.03,215.52,266.01,0,45,1
9.75,0.83,1.28,-0.28,0.19,-0.02,186.73,221.85,0,45,1
10.07,0.88,1.64,-0.04,0.17,-0.08,169.54,202.98,0,45,1
9.96,1.43,1.07,-0.04,0.13,-0.08,157.93,184.98,0,45,1
9.75,1.31,1.26,-0.03,0.13,-0.02,138.29,160.03,0,45,1
9.94,1.32,1.15,-0.06,0.14,-0.04,116.41,135.60,0,45,1
9.91,1.47,1.38,-0.09,0.07,-0.01,137.06,182.55,0,45,1
9.95,1.32,1.41,-0.11,0.05,-0.00,119.03,141.22,0,45,1
9.97,1.18,1.20,-0.09,0.09,0.02,119.96,150.15,0,45,1
10.09,1.28,1.11,-0.10,0.08,0.01,124.76,150.98,0,45,1
9.84,1.39,1.04,-0.11,0.06,0.03,145.35,191.06,0,45,1
9.85,1.26,1.63,-0.08,0.00,0.01,106.40,121.60,0,45,1
