ax,ay,az,gx,gy,gz,mav,rms
0.69,8.98,2.19,-0.2,0.01,0.03,1606.36,1902.93
0.74,9.12,2.99,-0.04,0.04,-0.11,994.67,1342.73
-0.09,9.88,2.94,-0.2,0.01,0.1,782.16,1077.73
0.72,8.93,3.22,-0.31,0.04,0.19,852.94,1154.09
0.78,8.92,3.3,-0.09,0.06,0.15,900.09,1173.39
1.15,8.86,3.25,-0.08,0.07,0.19,921.44,1159.45
1.1,8.78,3.23,-0.05,0.1,0.14,944.34,1162.3
1.19,8.88,3.41,-0.04,0.09,0.13,952.6,1163.96
1.23,8.94,3.38,-0.09,0.01,0.15,960.13,1178.43
1.47,9.1,3.36,-0.04,-0.03,0.16,995.96,1224.37
1.28,9.7,3.5,0.09,0.05,0.27,1052.26,1236.12
1.6,9.37,2.94,0.19,-0.07,0.5,1007.17,1184.56
2.26,8.7,2.46,0.18,-0.01,0.5,936.22,1124.27
2.69,8.61,2.35,0.08,0.0,0.34,920.4,1087.31
5.96,8.66,0.93,-0.23,-0.19,-0.47,837.16,1005.19
6.1,7.83,1.18,-0.76,0.18,-2.03,897.05,1094.24
1.75,7.07,2.88,-1.11,0.13,-2.99,934.29,1146.36
-2.54,3.98,4.11,-0.84,0.63,-3.74,974.27,1204.0
-6.48,0.43,3.64,-0.46,0.85,-3.76,881.17,1029.69
-11.37,-1.41,4.04,-0.09,-0.16,-3.13,823.12,944.6
-10.07,-1.07,3.95,-0.02,1.24,-1.6,650.29,753.77
-10.32,-0.76,3.75,-0.13,-0.24,-0.42,569.67,647.85
-11.0,-1.29,3.7,-0.06,0.26,-0.11,545.99,591.06
-11.0,-1.29,3.7,-0.06,0.26,-0.11,483.31,538.88
-11.28,-1.08,3.28,-0.05,0.11,0.62,549.53,659.54
-13.16,-0.79,3.32,-0.1,0.26,2.2,615.04,713.14
-11.63,-1.61,3.45,0.06,0.36,4.02,589.09,696.67
-5.83,2.4,2.7,0.15,-0.24,4.47,592.51,701.44
-1.41,5.09,2.27,0.24,-0.18,3.51,687.75,890.69
1.0,6.97,2.19,0.18,0.3,2.7,906.07,1197.46
3.34,7.79,1.9,0.13,-0.15,1.97,804.05,972.78
4.97,8.51,1.75,-0.01,-0.01,1.25,665.9,753.44
7.42,8.38,1.4,-0.06,-0.25,0.51,633.16,736.29
4.39,8.68,1.73,-0.14,-0.04,-0.13,597.35,721.55
3.51,8.68,1.87,-0.06,0.04,0.05,574.34,698.62
4.63,8.66,1.7,-0.06,0.3,0.03,536.78,627.58
4.7,8.6,1.84,-0.08,-0.01,-0.12,679.61,824.43
9.49,8.51,0.51,-0.42,-0.71,-1.5,886.64,1116.34
2.64,7.14,1.97,-0.45,0.69,-3.35,887.39,1132.5
-2.91,5.54,2.64,-0.69,0.09,-4.08,942.08,1197.94
-7.1,2.58,2.55,-0.57,-1.04,-3.8,764.58,870.54
-7.92,1.01,3.02,-0.23,0.26,-2.99,703.51,807.47
-9.08,-0.16,3.48,-0.07,0.58,-2.46,654.14,726.58
-11.09,-1.33,3.72,0.05,0.46,-1.85,540.89,596.29
-13.01,-0.77,3.34,0.01,0.34,-0.28,496.34,558.45
-10.76,-1.38,2.98,-0.0,0.18,0.11,498.38,556.97
-10.17,-0.87,2.77,-0.03,-0.05,0.4,511.6,595.48
-13.89,-0.95,2.15,-0.27,0.24,2.13,517.24,609.32
-11.37,-1.09,2.74,-0.32,-0.15,3.91,487.19,572.34
-5.62,2.45,2.04,-0.14,-0.25,4.01,470.9,554.66
-1.41,4.46,2.66,0.14,-0.3,3.44,577.61,711.38
0.34,7.29,2.6,0.23,0.03,2.82,627.08,812.17
2.88,8.07,2.34,0.24,-0.08,2.29,697.62,864.97
5.11,7.86,2.47,0.23,0.39,1.55,562.84,678.9
6.66,8.02,1.42,0.1,-0.19,0.73,574.28,692.92
5.41,8.42,1.46,-0.17,-0.01,0.04,602.18,715.32
5.17,8.2,2.09,-0.08,-0.05,0.04,573.34,675.05
5.15,8.21,2.17,-0.06,0.06,-0.09,606.01,728.74
6.79,8.53,1.8,-0.2,-0.18,-0.55,650.93,798.67
7.17,8.22,1.58,-0.34,-0.3,-1.64,795.13,1023.47
3.76,7.2,1.53,-0.63,-0.09,-2.95,861.41,1117.03
-1.48,5.88,1.88,-0.94,-0.3,-3.56,1080.65,1381.34
-4.62,3.13,2.89,-0.93,0.04,-3.63,898.08,1016.31
-7.14,0.98,3.53,-0.25,0.8,-3.02,798.49,918.65
-8.26,0.52,3.84,-0.22,0.09,-2.54,710.72,831.45
-10.92,-1.71,4.01,-0.1,0.24,-2.43,539.46,622.27
-12.46,-0.91,3.16,-0.07,0.59,-0.76,565.7,705.47
-10.35,-2.14,3.77,-0.15,-0.29,-0.34,632.66,765.32
-9.1,-1.91,3.36,-0.07,-0.06,0.1,506.74,568.04
-9.68,-1.91,3.34,-0.01,0.14,0.41,541.82,640.02
-12.47,-1.41,3.15,0.02,0.16,1.56,546.26,618.05
-11.47,-1.7,3.14,0.01,-0.26,3.17,495.11,623.39
-8.88,-0.48,3.22,0.14,-0.15,4.16,572.88,664.68
-4.59,3.11,2.77,0.12,0.28,3.98,616.01,749.05
-1.76,5.51,2.87,0.13,0.27,3.48,608.24,782.63
2.82,6.99,2.47,0.17,-0.39,2.87,669.11,848.3
6.79,8.47,2.04,0.1,0.48,1.45,627.8,777.58
5.14,8.68,2.53,-0.08,0.23,0.36,645.31,724.46
3.94,8.71,2.4,-0.09,-0.04,0.06,576.96,685.2
3.69,8.51,2.36,-0.14,-0.0,-0.12,607.64,694.59
4.11,8.69,2.9,-0.11,0.02,-0.29,551.54,644.96
5.02,8.76,2.34,-0.12,-0.25,-0.73,661.97,781.46
4.02,8.76,2.5,-0.28,0.0,-1.46,625.9,753.55
1.67,8.8,2.43,-0.33,0.27,-2.01,612.1,742.1
-0.26,7.51,1.71,-0.35,0.32,-2.58,658.38,814.1
-3.67,5.44,2.53,-0.39,-0.37,-3.18,687.03,841.12
-6.9,1.73,3.04,-0.4,0.21,-3.53,598.71,681.04
-8.69,-0.34,3.56,0.1,0.45,-3.06,522.22,582.16
-10.04,-0.88,3.38,0.1,-0.27,-2.29,446.3,497.81
-12.23,-0.51,3.26,-0.01,0.32,-0.77,429.7,468.42
-10.58,-1.23,3.33,-0.07,-0.02,-0.31,410.53,455.07
-9.81,-1.2,3.11,-0.06,0.06,-0.0,415.08,471.95
-9.21,-1.41,3.04,-0.05,0.02,0.13,458.48,553.93
-11.68,-1.21,3.11,-0.1,0.15,0.8,484.3,582.68
-12.47,-0.85,2.92,-0.2,0.03,2.34,489.37,596.42
-10.76,0.08,3.28,-0.11,0.24,3.66,466.13,511.23
-6.5,2.93,2.58,-0.13,-0.07,4.03,503.04,636.13
-2.43,4.73,2.77,-0.03,-0.13,3.44,629.26,809.69
0.92,6.64,2.5,0.09,-0.53,2.78,671.72,897.72
3.08,7.34,2.4,0.09,-0.21,2.15,736.29,985.4
4.4,8.03,2.78,0.12,-0.1,1.67,692.35,839.61
6.72,7.86,2.05,-0.03,-0.25,1.12,718.76,835.47
8.12,7.78,2.14,-0.07,0.55,0.18,626.47,726.33
4.5,7.74,2.93,-0.05,-0.27,-0.01,593.92,697.55
4.9,7.98,2.6,-0.04,-0.02,0.02,581.88,686.99
5.73,8.12,2.24,-0.09,-0.26,-0.15,553.43,661.76
7.62,8.29,2.21,-0.13,0.84,-0.58,575.18,697.98
7.15,8.45,2.11,0.02,-0.2,-1.6,673.7,841.42
3.58,7.53,1.33,-0.19,0.25,-2.7,705.6,915.1
-0.53,6.78,1.41,-0.52,-0.35,-2.89,791.74,1124.38
-2.78,4.91,3.87,-0.77,-0.01,-3.09,948.81,1336.34
-5.37,2.08,4.54,-0.23,0.62,-3.07,849.93,1036.09
-6.06,0.95,3.92,0.01,0.24,-2.69,748.43,805.27
-8.36,-0.46,3.9,0.1,0.17,-2.66,627.23,694.59
-11.62,-0.51,2.72,0.19,0.58,-1.6,528.72,651.94
-11.27,-0.91,2.62,-0.12,-0.31,-0.53,487.51,538.08
-10.5,-1.34,2.79,-0.15,-0.18,-0.05,470.9,533.1
-8.88,-1.34,2.88,-0.12,-0.06,0.13,470.38,531.24
-10.51,-1.05,3.01,-0.1,0.14,0.35,474.24,567.23
-14.49,-0.84,3.25,-0.22,0.36,2.01,499.46,565.34
-11.91,-0.69,3.33,-0.18,0.36,3.63,504.74,623.05
-7.59,1.95,2.7,-0.15,0.31,3.98,555.15,626.92
-2.58,5.21,2.32,-0.05,-0.51,3.47,525.26,660.42
-0.41,6.75,2.55,0.02,-0.01,2.87,618.79,770.12
2.0,7.24,2.82,0.18,-0.45,2.26,614.24,769.09
2.0,7.24,2.82,0.18,-0.45,2.26,663.01,823.34
4.05,8.13,2.14,0.23,0.23,1.63,652.25,745.79
5.75,8.21,2.04,0.1,-0.24,1.24,635.77,716.85
7.38,7.95,1.91,-0.13,0.65,0.12,598.3,702.41
3.71,7.96,2.72,-0.15,0.02,-0.1,599.14,723.41
4.99,8.08,2.63,-0.01,-0.14,0.08,587.4,686.96
6.36,8.28,2.07,-0.12,-0.2,-0.37,646.4,772.61
5.73,8.23,2.59,-0.28,-0.06,-0.91,663.51,792.22
5.28,8.5,3.01,-0.19,-0.21,-1.55,694.46,883.09
4.1,7.95,3.77,-0.19,0.26,-2.44,759.18,965.45
0.45,6.04,2.94,-0.41,-0.29,-3.08,849.62,1109.58
-3.5,3.9,3.54,-0.57,-0.38,-3.2,769.36,894.71
-5.19,1.56,4.61,-0.41,-0.61,-3.09,639.63,736.37
-10.14,0.45,5.0,-0.07,0.65,-2.73,528.78,607.88
-10.64,-0.66,3.67,0.02,0.3,-2.37,445.93,521.16
-11.61,-1.15,2.94,0.04,0.41,-1.28,427.62,472.15
-11.2,-1.38,2.81,-0.15,-0.43,-0.07,441.02,506.79
-9.78,-1.46,2.78,-0.08,0.08,0.05,462.92,536.9
-8.84,-1.28,2.71,-0.12,-0.1,0.13,522.95,613.7
-12.29,-0.76,2.59,-0.14,0.46,0.88,571.42,661.72
-13.44,-1.44,2.78,-0.32,0.28,2.96,526.47,650.73
-9.92,0.06,2.93,-0.25,-0.1,4.4,564.62,700.7
-3.93,4.35,2.85,-0.15,-0.14,3.96,625.03,812.53
0.03,5.8,2.56,0.03,-0.28,3.18,663.64,887.14
1.87,6.55,2.47,0.12,-0.34,2.46,774.46,956.74
3.3,7.94,2.66,0.2,-0.19,1.81,737.02,960.95
5.6,8.23,2.51,0.17,-0.04,1.31,692.6,792.78
6.43,7.83,2.8,-0.04,0.24,0.5,642.48,757.79
5.23,7.77,3.04,-0.07,0.2,0.0,634.91,729.2
4.76,7.91,2.95,-0.04,-0.14,-0.02,618.84,747.77
5.92,8.3,2.62,-0.08,-0.21,-0.22,628.5,711.88
7.53,8.51,1.88,-0.22,-0.08,-0.84,560.97,672.04
5.39,7.71,2.94,-0.24,0.24,-1.68,620.41,759.11
2.77,7.42,2.66,-0.35,0.39,-2.28,729.08,934.1
1.17,7.03,1.48,-0.37,-0.11,-2.69,695.38,896.13
-2.46,5.71,0.46,-0.37,0.06,-3.24,658.55,796.21
-6.46,3.1,1.79,-0.19,0.49,-3.03,612.16,697.21
-8.64,1.34,2.77,-0.06,0.64,-2.86,564.68,637.66
-8.92,-1.16,3.91,-0.07,-0.49,-2.91,479.57,537.62
-12.08,-1.24,4.64,0.15,0.4,-1.42,460.01,508.56
-10.25,-1.74,4.2,-0.02,-0.29,-0.07,472.96,553.2
-9.48,-1.54,3.88,-0.02,0.32,0.01,465.99,540.74
-8.21,-1.52,3.57,-0.1,0.04,0.21,485.43,550.96
-9.65,-1.32,3.95,-0.03,0.22,0.58,529.33,622.28
-10.96,-0.93,4.05,-0.08,-0.31,1.61,455.34,549.66
-11.11,-0.72,4.84,0.14,0.29,3.25,466.39,532.2
-8.54,1.58,4.61,0.33,-0.76,4.09,478.76,612.6
-3.87,4.1,3.6,0.29,0.66,3.81,585.27,809.37
0.26,5.96,2.82,0.18,-0.12,3.18,701.68,911.34
2.31,6.87,3.0,0.18,0.04,2.56,844.76,1176.9
5.43,7.18,2.43,0.23,-0.04,1.94,881.25,1136.3
6.91,7.81,3.32,0.05,-0.08,1.22,904.22,1042.25
7.47,7.48,2.73,-0.13,0.48,-0.06,959.59,1045.29
3.89,7.47,3.48,-0.15,-0.0,-0.17,784.55,870.14
6.11,7.84,3.13,-0.04,-0.21,-0.19,790.46,894.11
7.58,7.65,2.94,-0.18,0.06,-1.26,736.65,870.46
4.78,7.83,3.16,-0.26,-0.03,-2.09,733.67,877.29
1.87,7.74,3.47,-0.03,0.06,-2.41,834.52,1063.25
-0.75,6.14,2.66,-0.13,0.32,-2.91,815.58,1072.75
-3.4,4.95,2.44,-0.48,-0.29,-3.17,828.29,1023.66
-6.95,1.21,4.19,-0.0,1.08,-3.47,688.83,772.94
-9.5,-1.22,4.07,0.08,0.1,-3.27,601.07,693.35
-12.55,-0.58,3.42,0.12,0.34,-1.74,537.73,595.26
-11.38,-0.39,3.16,-0.11,-0.33,-0.37,478.24,540.71
-10.43,-0.69,3.24,-0.02,0.02,-0.17,523.46,612.59
-8.5,-0.66,2.99,-0.05,0.09,0.12,499.78,574.25
-8.34,-1.0,3.03,0.01,0.16,-0.02,446.12,506.76
-11.22,-0.56,2.79,0.04,0.6,0.64,441.95,515.71
-13.62,-0.47,2.66,-0.2,0.33,2.64,542.08,638.37
-11.64,-0.42,2.39,-0.2,0.15,4.37,495.28,613.96
-4.64,4.36,1.6,0.07,0.2,4.07,579.08,712.76
-0.83,4.86,1.96,0.06,-0.57,3.33,767.11,1024.17
-0.04,6.44,2.7,0.2,-0.05,2.75,889.51,1216.2
4.69,8.09,1.89,0.26,0.1,2.02,931.59,1132.64
5.5,8.55,2.24,0.15,-0.12,1.27,801.38,977.18
7.84,8.08,0.96,0.01,0.38,0.3,627.08,713.12
4.76,8.04,1.23,-0.24,0.06,-0.08,673.55,753.67
5.68,8.01,1.62,-0.11,0.01,0.04,611.92,698.07
6.83,8.27,1.48,-0.07,-0.21,-0.21,681.69,789.46
9.3,8.23,1.1,-0.45,-0.3,-1.65,728.89,931.73
5.36,6.91,2.24,-0.71,0.56,-3.11,833.33,1029.05
1.26,5.75,1.1,-0.31,0.26,-3.65,1286.5,1595.35
-4.96,4.13,1.07,-0.33,0.02,-3.92,1048.24,1281.64
-10.17,1.28,3.3,-0.09,0.41,-3.14,787.09,927.71
-8.16,0.65,3.29,-0.05,0.22,-2.71,727.88,847.02
-11.22,-1.66,3.73,0.14,-0.09,-2.52,685.21,794.52
-14.42,0.4,2.39,0.01,0.15,-0.33,592.91,664.07
-10.98,-0.87,2.05,-0.06,0.14,0.01,542.69,625.32
-9.2,-0.6,2.25,-0.09,-0.08,0.21,541.02,616.92
-8.66,-0.75,2.43,-0.07,0.12,0.14,542.76,615.47
-10.0,-0.55,2.48,-0.09,0.19,0.18,528.9,624.15
-13.34,-0.25,2.29,-0.22,0.29,1.69,486.96,569.06
-12.42,-0.29,2.3,-0.33,0.43,3.35,486.3,581.51
-8.82,1.75,1.86,-0.57,-0.35,4.32,583.08,689.05
-4.51,4.18,2.43,-0.41,-0.03,3.96,594.0,773.11
1.34,5.71,2.41,0.08,-0.6,3.26,774.53,1093.21
4.5,7.83,1.58,0.2,-0.22,2.2,958.53,1310.81
4.79,8.01,2.3,0.16,-0.18,1.45,765.5,962.21
8.76,8.03,0.81,0.02,-0.2,0.88,885.63,1017.14
6.07,8.11,1.05,-0.15,0.34,-0.35,770.69,955.15
3.65,8.3,2.15,-0.06,-0.17,0.03,807.24,938.91
5.77,8.36,1.91,-0.04,0.11,0.01,714.47,842.02
5.77,8.36,1.91,-0.04,0.11,0.01,747.63,898.77
7.75,8.31,1.48,-0.17,-0.35,-0.62,858.18,1037.86
7.39,7.97,1.71,-0.35,0.13,-1.89,892.97,1162.91
3.54,7.47,2.33,-0.14,0.54,-2.83,936.26,1273.13
-0.74,7.37,0.68,-0.2,0.09,-3.28,932.35,1146.03
-6.31,5.54,2.17,-0.18,0.04,-3.51,746.51,860.03
-8.69,3.29,2.53,-0.14,-0.47,-2.68,660.74,762.53
-9.85,2.08,3.14,-0.07,-0.55,-2.02,624.36,703.1
-8.73,0.47,3.43,-0.0,-0.19,-1.93,606.66,685.69
-9.83,-0.26,3.1,0.02,-0.18,-1.46,542.86,623.13
-11.16,-0.35,2.72,-0.07,-0.1,-0.41,564.37,643.38
-10.23,-0.56,2.79,-0.08,0.14,-0.07,495.71,573.61
-9.23,-0.49,2.61,-0.06,0.17,0.09,508.94,577.26
-9.29,-0.69,2.44,-0.06,0.2,0.1,529.79,593.71
-9.99,-0.56,2.36,-0.12,0.23,0.3,500.61,597.61
-13.61,-0.09,2.33,-0.29,0.16,2.11,544.98,650.9
-12.36,0.2,2.32,-0.32,0.26,3.62,559.93,674.65
-6.84,3.5,2.01,-0.36,-0.27,4.09,590.08,747.58
-2.24,5.3,2.44,-0.12,0.05,3.63,710.72,985.12
1.58,6.38,2.17,0.06,-0.2,2.93,850.8,1205.01
3.6,7.53,2.23,0.08,0.03,2.17,803.97,1049.95
5.38,8.23,2.06,0.12,0.07,1.54,798.06,934.67
7.76,7.89,1.57,-0.07,-0.3,0.84,803.82,955.52
5.61,7.92,1.94,-0.18,0.36,-0.18,828.71,1015.46
4.29,8.1,2.15,-0.04,0.16,-0.01,772.0,960.79
5.2,8.15,2.18,-0.07,0.02,-0.05,733.69,873.81
6.01,8.12,2.36,-0.16,-0.19,-0.42,756.63,889.37
4.98,7.98,2.16,-0.32,0.42,-1.1,879.66,1091.74
4.17,8.66,2.96,-0.3,-0.05,-1.49,944.4,1256.05
2.02,8.77,2.69,-0.24,0.53,-2.06,968.54,1267.2
-0.35,7.61,2.25,-0.28,0.08,-2.54,986.04,1220.74
-4.38,5.23,4.7,-0.37,-0.17,-3.02,905.97,1053.25
-6.19,4.04,3.7,-0.22,-0.63,-2.73,806.69,876.36
-6.93,1.59,2.5,0.19,0.87,-3.01,736.53,787.08
-9.22,-0.63,2.21,0.24,0.17,-2.75,603.9,655.1
-11.16,-0.66,2.33,0.22,0.13,-1.72,539.5,585.25
-11.8,-0.85,1.79,-0.03,0.09,-0.41,552.72,621.94
-10.35,-1.3,2.24,-0.09,0.08,-0.1,574.6,649.03
-9.45,-1.27,2.32,-0.09,-0.01,0.06,545.55,602.67
-9.38,-1.27,2.21,-0.08,0.03,0.04,521.06,575.96
-10.17,-1.19,2.13,-0.14,0.04,0.34,576.45,657.06
-13.25,-0.57,1.81,-0.37,0.46,1.83,565.71,668.78
-12.86,-1.3,1.84,-0.5,0.65,3.7,593.71,699.7
-7.27,2.43,1.73,-0.67,0.68,4.14,606.06,714.97
-3.26,5.61,2.01,-0.59,0.44,3.46,565.3,703.32
0.15,6.4,2.04,-0.28,-0.73,3.0,701.55,965.15
3.22,7.33,2.18,-0.18,0.19,2.31,843.7,1120.72
4.65,8.03,3.11,0.08,-0.4,1.72,726.39,1014.78
8.73,8.1,1.75,0.03,-0.29,0.74,643.99,802.93
3.92,8.22,2.26,-0.15,0.27,-0.29,715.07,894.71
3.34,8.34,2.73,-0.1,-0.08,0.1,654.74,807.77
5.18,8.33,2.26,-0.05,-0.03,0.0,757.79,939.04
5.42,8.55,2.04,-0.2,-0.25,-0.36,816.88,993.74
7.24,8.31,2.32,-0.41,0.51,-1.3,857.08,1076.62
4.49,7.71,2.81,-0.25,0.12,-2.42,941.61,1277.74
-2.02,7.18,3.23,-0.17,-0.16,-2.79,945.98,1244.47
-4.83,6.89,3.95,-0.16,0.03,-2.76,973.04,1196.76
-4.02,4.73,2.8,-0.16,0.06,-2.74,932.49,1036.08
-5.48,2.1,1.73,0.06,1.12,-2.9,794.84,866.04
-8.16,-0.05,2.7,0.14,0.24,-2.63,683.97,742.1
-10.2,-1.02,3.45,0.03,-0.3,-2.05,576.04,633.31
-12.64,-0.27,2.76,-0.04,0.21,-0.58,585.45,641.01
-10.54,-1.04,2.89,-0.09,0.16,-0.11,590.82,689.77
-9.02,-0.92,2.6,-0.12,0.0,0.13,589.44,662.8
-8.39,-1.01,2.72,-0.07,0.17,0.06,538.76,589.84
-11.45,-0.73,2.31,-0.12,0.18,0.45,482.32,544.69
-12.73,-0.65,2.99,-0.35,-0.12,2.01,570.48,680.2
-12.86,0.17,3.27,-0.25,0.5,3.14,563.47,681.15
-8.32,2.06,2.23,-0.09,0.3,4.19,561.52,679.28
-2.44,4.71,1.66,-0.31,-0.33,3.58,625.94,770.38
-0.2,6.13,2.5,-0.09,-0.3,2.9,752.81,1015.81
2.35,7.37,2.48,0.08,-0.35,2.28,847.88,1099.31
4.44,8.19,2.92,0.05,-0.33,1.77,788.59,971.42
9.9,7.95,1.59,0.06,-0.24,0.88,701.61,808.85
4.9,8.23,1.67,-0.11,0.25,-0.29,656.78,766.39
3.5,8.03,2.43,-0.14,-0.05,0.01,661.3,760.56
4.58,8.22,2.88,-0.0,-0.07,0.01,656.19,822.58
4.78,8.52,2.74,-0.1,-0.13,-0.21,668.71,781.81
8.51,8.2,1.93,-0.27,-0.17,-1.15,628.19,783.58
5.89,8.03,1.98,-0.36,0.13,-2.33,719.47,928.63
0.87,7.08,1.69,-0.39,0.34,-3.08,867.88,1150.02
-4.23,4.83,2.58,-0.31,0.89,-3.32,771.74,1027.89
-6.76,3.07,2.91,0.06,-0.87,-2.85,787.42,920.03
-7.53,2.45,3.11,0.01,-0.31,-2.48,715.62,836.56
-7.77,0.05,3.43,-0.04,0.41,-2.87,630.68,709.77
-11.72,-1.65,3.49,0.02,-0.32,-2.2,565.36,627.92
-11.99,-0.78,3.54,-0.05,0.18,-0.43,510.95,574.84
-10.28,-1.53,3.29,-0.08,-0.03,-0.09,516.19,578.72
-8.84,-1.5,2.93,-0.1,0.25,0.1,496.99,569.3
-9.21,-1.52,3.43,-0.08,0.23,0.13,547.15,624.1
-11.7,-0.89,2.74,-0.13,0.74,0.95,599.9,783.68
-14.48,-0.81,2.49,-0.38,0.24,2.44,548.38,650.63
-10.99,-0.82,2.35,-0.38,-0.31,4.05,531.07,617.96
-5.05,2.81,2.38,-0.21,-0.32,4.18,550.42,689.74
-1.89,3.97,2.53,0.11,-0.53,3.78,602.32,787.54
1.93,6.58,2.6,0.18,0.49,3.27,769.53,1064.28
6.77,7.43,2.89,0.32,-0.41,2.32,909.69,1180.88
11.33,7.92,1.67,0.12,0.54,0.6,816.91,972.13
3.66,8.14,2.87,-0.29,0.23,-0.29,680.99,793.78
3.99,7.93,3.31,-0.07,0.04,0.08,740.92,881.86
4.16,8.25,2.77,-0.01,0.21,-0.09,769.06,920.67
4.91,8.55,1.84,-0.11,-0.01,0.01,797.94,973.23
4.91,8.55,1.84,-0.11,-0.01,0.01,808.91,977.08
6.25,8.53,2.95,-0.15,-0.45,-0.25,780.57,936.11
8.95,7.68,1.47,-0.38,-0.07,-1.86,776.25,987.36
3.36,6.76,1.33,-0.56,0.44,-3.18,924.06,1233.16
-2.43,5.57,2.04,-0.62,0.67,-3.74,919.04,1179.01
-6.43,2.83,3.13,-1.1,-1.24,-3.65,761.75,845.3
-9.95,0.24,6.17,-0.56,-0.22,-3.18,689.29,766.95
-10.11,-0.55,4.78,0.09,0.78,-2.54,574.87,645.61
-10.62,-1.92,4.08,0.09,-0.38,-2.12,527.02,578.9
-12.37,-0.77,3.63,-0.01,-0.07,-0.27,513.39,565.55
-9.72,-1.56,3.26,-0.01,0.2,-0.12,526.6,581.09
-8.85,-1.58,3.24,-0.07,0.01,0.15,536.98,610.72
-8.34,-1.47,3.25,-0.06,0.06,0.06,537.14,602.23
-9.2,-1.66,3.27,-0.1,-0.08,0.01,505.75,584.97
-11.8,-1.34,3.4,-0.19,0.09,0.73,547.88,618.61
-12.97,-1.27,3.8,-0.25,0.09,2.68,550.16,628.35
-11.94,-0.75,4.08,-0.08,0.09,4.49,546.39,654.34
-4.65,3.41,2.69,0.0,0.2,4.25,614.34,765.38
-0.9,4.47,2.23,0.14,-0.54,3.56,646.04,843.94
2.16,6.1,1.88,0.2,-0.44,2.86,820.31,1088.6
5.44,7.61,2.38,0.19,-0.63,2.15,823.64,1089.31
10.01,8.47,1.19,0.17,0.16,1.18,733.58,850.8
4.06,7.95,3.33,-0.14,0.8,-0.39,649.02,771.58
1.87,8.07,3.65,-0.11,0.25,0.01,660.85,810.14
4.75,8.1,3.13,-0.0,-0.0,0.11,627.14,751.71
4.78,8.18,2.85,-0.1,0.06,-0.12,614.06,759.5
4.45,8.09,3.45,-0.15,-0.14,-0.18,695.42,878.06
6.75,8.18,3.3,-0.13,-0.16,-0.67,670.88,911.53
7.24,8.06,3.17,-0.16,-0.43,-1.87,788.47,1058.08
4.01,7.16,1.35,-0.21,0.4,-3.07,796.26,1061.4
-0.31,5.61,0.45,-0.4,0.61,-3.61,841.73,1096.5
-8.02,2.91,3.28,-0.18,-0.18,-3.31,786.72,895.39
-7.82,1.7,3.22,0.03,0.57,-2.7,674.14,748.14
-8.69,0.79,3.27,-0.06,-0.49,-2.53,574.9,631.64
-11.02,-0.54,3.77,0.08,-0.51,-1.98,517.86,574.2
-12.59,0.05,3.31,-0.05,0.11,-0.35,495.47,563.7
-9.88,-0.65,3.03,-0.14,-0.01,-0.04,511.65,595.44
-9.18,-0.59,3.23,-0.11,0.02,0.14,486.78,564.31
-9.21,-0.69,3.3,-0.05,0.1,0.03,502.0,576.29
-9.33,-0.71,2.74,-0.08,-0.06,0.03,544.82,650.41
-12.31,-0.23,3.21,-0.18,0.57,0.96,577.61,668.48
-12.71,-1.25,3.59,-0.34,0.07,3.11,543.61,643.59
-10.39,-0.23,2.83,-0.43,0.11,4.44,543.12,666.53
-3.15,4.09,2.69,-0.06,-0.02,4.22,668.03,890.58
0.46,5.65,3.31,0.2,-0.6,3.46,737.53,1009.58
4.12,7.28,2.89,0.36,-0.4,2.56,766.78,996.23
7.51,8.27,2.26,0.16,0.12,1.44,751.36,905.77
7.26,8.2,1.57,-0.1,0.2,0.07,774.27,877.13
3.24,8.44,3.36,-0.32,0.14,-0.18,661.96,841.91
4.13,8.14,3.42,0.13,0.17,0.15,810.73,975.4
4.26,8.32,2.42,0.01,-0.28,0.02,721.11,848.96
5.26,8.14,3.18,-0.27,-0.35,0.08,697.1,812.27
8.17,7.8,3.38,-0.09,0.15,-0.95,762.1,946.23
6.04,7.66,2.14,-0.33,0.0,-2.53,787.6,995.6
1.05,6.65,1.7,-0.86,-0.33,-2.91,954.56,1295.27
-2.47,6.71,1.78,-0.67,0.3,-3.01,949.58,1235.46
-7.23,3.56,3.63,-0.45,0.19,-3.26,854.74,962.45
-11.06,0.34,4.69,-0.44,-1.1,-2.93,734.82,812.3
-8.27,0.68,4.46,-0.32,0.54,-2.17,609.96,659.08
-10.34,-1.14,4.25,0.03,0.41,-1.99,570.39,621.27
-12.09,-0.8,3.52,0.04,0.43,-0.59,524.59,575.18
-9.6,-1.38,3.23,-0.11,-0.17,0.03,578.97,658.16
-8.94,-1.28,3.16,-0.11,-0.23,0.12,542.63,632.12
-8.74,-1.36,3.11,-0.15,-0.13,0.1,545.09,605.96
-9.66,-1.54,3.33,-0.19,0.09,0.19,550.15,628.73
-12.72,-1.01,3.35,-0.21,0.69,1.34,601.22,705.48
-14.42,-1.23,2.75,-0.49,0.05,3.25,608.58,744.92
-9.69,0.36,2.23,-0.78,-0.31,4.74,582.32,661.97
-2.77,3.71,3.22,-0.24,-0.65,4.05,606.78,724.59
0.1,5.49,3.65,0.21,-0.43,3.17,692.66,878.11
3.65,7.5,2.83,0.19,-0.07,2.12,707.5,885.57
6.2,8.63,2.73,0.16,-0.06,1.13,687.49,790.64
6.5,8.7,1.93,-0.08,0.75,0.1,678.38,824.15
2.83,8.26,2.84,-0.23,0.06,-0.16,612.4,716.67
2.83,8.49,3.18,-0.07,0.1,0.09,720.45,887.63
3.84,8.78,2.99,-0.01,0.11,-0.02,646.09,773.64
5.77,8.71,3.21,-0.08,-0.63,-0.3,626.97,732.13
4.61,8.34,2.79,-0.18,-0.09,-1.59,600.72,720.33
2.9,7.33,2.69,-0.33,-0.1,-2.58,724.89,947.86
-2.06,5.32,3.18,-0.26,0.21,-3.33,859.66,1157.38
-5.92,3.22,4.1,-0.49,-0.08,-3.49,867.57,1030.3
-6.93,2.33,3.67,-0.29,-1.56,-3.12,702.36,775.16
-10.01,-0.85,3.62,0.13,-0.08,-3.12,619.38,682.93
-10.74,-2.26,3.45,0.12,-0.03,-2.17,506.28,561.92
-11.53,-1.29,3.7,-0.09,-0.57,-0.21,537.97,605.27
-10.35,-1.68,3.41,-0.06,0.18,-0.1,575.94,670.13
-8.82,-1.5,3.31,-0.08,-0.06,0.11,553.49,618.07
-8.93,-1.72,3.24,-0.05,0.2,0.1,525.68,574.08
-9.92,-1.37,3.27,-0.05,0.32,0.29,530.47,599.94
-11.97,-0.99,3.09,-0.19,0.13,1.41,545.17,627.85
-11.62,-0.36,2.86,-0.22,0.27,2.48,581.3,691.08
-11.72,0.24,2.86,-0.27,0.42,3.68,643.26,738.69
-5.95,2.95,2.61,-0.36,0.01,4.09,629.83,771.81
-1.28,4.95,2.11,-0.21,-0.28,3.56,652.08,847.12
1.65,5.63,2.66,0.08,-0.28,2.98,764.55,1010.37
4.52,7.15,3.65,0.16,-0.44,2.33,680.55,850.99
11.59,7.94,2.36,-0.03,0.44,0.66,749.16,894.3
3.04,8.26,2.72,-0.11,0.27,-0.31,610.34,710.31
3.86,7.98,3.09,-0.09,-0.41,0.15,699.89,813.74
4.65,8.29,3.28,0.0,-0.46,0.04,710.06,907.65
3.56,8.25,3.17,-0.01,0.04,-0.07,658.76,792.79
7.59,8.25,2.15,-0.06,-0.51,-0.37,658.96,779.59
7.59,8.25,2.15,-0.06,-0.51,-0.37,680.62,851.6
9.48,8.59,1.14,-0.26,-0.35,-1.63,725.18,962.06
2.2,7.39,1.27,-0.39,0.65,-2.83,906.71,1218.75
-2.82,6.74,3.11,-0.54,0.31,-3.29,813.78,1006.35
-6.19,3.9,3.89,-0.53,-0.83,-3.66,698.59,799.67
-8.05,0.36,4.64,-0.33,0.09,-3.52,601.36,678.61
-9.96,-1.3,4.21,-0.12,0.57,-3.04,513.94,612.38
-12.14,-1.03,3.74,0.04,0.66,-1.73,520.47,614.5
-11.2,-1.03,3.07,-0.09,-0.09,-0.38,636.56,764.11
-10.19,-1.36,3.42,-0.02,0.28,-0.18,537.59,635.59
-9.18,-1.38,3.09,-0.04,0.12,0.11,554.33,650.79
-8.44,-1.4,3.14,-0.03,0.18,0.05,512.62,579.44
-9.04,-1.3,3.1,-0.09,0.08,0.13,526.9,593.98
-11.03,-0.89,3.02,-0.1,0.41,0.78,532.09,633.37
-12.28,-0.59,2.53,-0.3,0.24,2.37,498.83,580.01
-11.89,-0.91,3.87,-0.19,0.31,3.81,602.5,717.07
-5.43,2.79,3.04,-0.04,-0.12,4.23,549.62,672.65
-1.53,4.83,3.22,0.2,-0.35,3.64,640.69,821.61
1.86,6.63,3.0,0.35,-0.29,3.01,628.79,821.96
5.99,7.55,2.42,0.38,-0.28,2.11,799.85,964.7
8.84,8.27,1.37,0.1,0.01,0.93,698.28,818.49
4.04,8.21,2.48,-0.19,0.06,-0.25,669.76,791.2
4.44,8.23,2.62,-0.06,-0.01,0.17,713.19,836.71
5.98,8.25,2.58,-0.02,-0.26,-0.08,623.33,740.19
6.53,8.38,2.22,-0.23,-0.58,-0.55,719.4,824.68
7.07,8.11,2.21,-0.49,0.4,-1.92,753.54,944.44
2.58,6.65,2.44,-0.52,0.57,-3.2,880.67,1102.79
-1.72,5.11,1.96,-0.59,0.06,-3.61,888.88,1133.26
-2.23,3.28,2.72,-1.21,-1.73,-3.33,737.52,841.61
-6.83,0.75,4.76,-0.23,0.58,-3.19,679.27,748.48
-9.41,-1.8,4.41,-0.09,0.11,-2.83,600.11,691.83
-11.89,-0.32,4.1,-0.07,-0.01,-0.96,624.3,743.13
-9.1,-1.41,4.43,-0.13,-0.37,-0.51,830.06,1105.62
-9.88,-1.3,3.97,-0.2,-0.16,-0.02,740.34,984.9
-8.55,-1.41,3.66,-0.32,-0.78,0.05,1067.06,1326.83
-7.66,-2.32,4.46,-0.18,-0.26,0.1,872.25,1111.0
-8.83,-1.39,4.02,-0.13,-0.1,0.13,636.18,714.53
-13.81,-1.16,4.7,-0.1,-0.06,1.89,594.76,659.8
-11.48,-1.36,4.8,0.23,-0.3,3.33,552.41,638.95
-7.95,2.34,4.14,0.41,-0.01,3.63,602.61,687.82
-4.02,4.7,3.66,0.38,0.13,3.23,692.24,912.05
-1.07,6.6,2.89,0.46,-0.08,2.69,740.91,966.08
-0.6,7.24,3.3,0.29,-0.08,2.18,712.6,929.87
2.82,8.12,2.71,0.32,-0.01,1.97,791.34,952.58
6.28,8.03,1.06,0.25,-0.28,1.81,804.9,999.09
9.16,7.73,1.94,-0.12,0.17,0.1,637.49,783.08
3.13,8.26,2.7,-0.17,-0.01,0.0,608.74,763.47
5.76,8.3,2.03,0.0,-0.25,0.06,645.52,800.46
4.33,8.59,2.18,-0.13,-0.04,-0.05,590.41,709.53
6.66,8.03,2.06,-0.18,-0.09,-0.38,614.37,749.04
6.06,7.96,2.5,-0.6,-0.19,-1.33,728.78,955.41
5.0,7.61,2.79,-0.57,0.33,-2.51,715.6,937.98
0.6,5.63,3.89,-0.49,0.41,-3.29,796.79,1029.93
-4.8,3.77,3.52,-0.02,0.51,-3.38,733.55,944.8
-7.69,2.62,2.23,-0.07,0.88,-3.29,683.32,785.8
-9.94,0.52,3.91,-0.04,0.39,-2.84,597.8,677.97
-10.66,-1.72,4.15,-0.09,-0.4,-2.58,516.17,583.65
-11.45,-1.51,4.22,-0.06,-0.16,-1.22,580.31,680.11
-9.6,-2.01,4.37,-0.1,0.04,-0.27,561.27,650.16
-9.1,-2.15,4.02,-0.04,0.29,-0.0,500.41,605.35
-8.13,-1.98,3.78,-0.04,0.35,0.1,577.14,677.52
-7.76,-2.13,3.41,-0.04,0.3,0.04,532.23,615.4
-8.73,-2.07,3.57,-0.13,-0.09,0.16,527.23,587.51
-10.39,-2.16,4.23,-0.13,-0.07,0.76,507.46,583.45
-13.67,-2.3,4.86,-0.07,0.05,2.92,573.86,669.46
-11.17,-0.68,4.12,0.07,-0.37,4.2,508.87,610.37
-5.48,3.04,3.53,0.21,-0.41,4.3,503.65,553.84
-0.09,5.45,2.94,0.55,-0.2,3.48,659.88,844.45
2.93,6.48,2.37,0.53,-0.57,2.54,649.4,844.58
3.59,7.41,2.88,0.54,-0.19,1.84,727.93,930.29
6.78,8.03,1.58,0.26,-0.13,1.24,689.57,828.13
5.74,8.21,1.74,-0.16,0.32,-0.21,628.74,745.52
3.08,8.22,2.78,-0.2,-0.24,0.04,749.35,929.73
5.33,8.42,2.34,-0.01,-0.2,-0.09,678.17,820.71
5.75,8.64,1.47,-0.24,-0.41,-0.32,597.18,741.77
7.05,8.67,1.23,-0.4,-0.28,-0.97,702.49,832.94
7.54,7.81,1.25,-0.64,0.57,-2.45,707.14,904.84
-0.33,5.44,3.08,-0.85,-0.03,-3.76,814.65,1060.71
-5.4,2.81,4.14,-0.9,-0.36,-3.89,906.26,1182.04
-4.96,1.74,2.21,-0.49,-0.3,-3.23,734.01,886.45
-7.16,0.17,3.26,-0.29,0.03,-2.64,624.21,746.32
-9.47,-1.85,4.45,-0.2,-0.03,-2.33,548.06,649.81
-12.21,-0.85,4.61,-0.12,0.19,-0.58,575.87,713.26
-10.6,-1.6,4.36,-0.11,0.15,-0.15,618.52,798.1
-8.82,-1.51,4.01,-0.04,0.03,0.1,533.2,653.11
-8.16,-1.64,3.68,-0.05,0.09,0.14,476.52,551.48
-8.38,-1.43,3.71,-0.07,0.22,0.1,494.34,562.12
-8.74,-1.14,3.96,-0.09,0.18,0.26,505.09,573.97
-11.5,-1.16,3.9,0.04,0.24,1.17,535.56,597.8
-12.67,-1.22,4.59,0.12,0.07,3.13,531.35,606.26
-8.32,0.24,3.61,0.25,-0.07,4.22,471.45,579.15
-4.39,3.15,3.23,0.38,0.02,4.05,553.64,697.76
0.84,5.46,1.67,0.51,-0.02,3.23,661.84,872.07
2.64,7.38,2.73,0.28,-0.31,2.27,795.78,1042.51
3.46,8.77,2.69,0.32,-0.05,1.54,734.07,870.18
8.26,8.95,1.87,-0.02,0.45,0.33,670.63,768.28
1.75,8.57,3.17,-0.34,-0.01,-0.32,660.45,784.57
4.15,8.81,2.46,-0.18,-0.35,0.21,667.63,754.14
4.54,8.48,1.9,-0.32,-0.25,-0.03,580.61,718.29
3.72,8.38,2.76,-0.26,-0.16,0.03,577.18,692.46
3.94,8.3,2.87,-0.11,-0.23,-0.07,533.5,663.53
3.94,8.3,2.87,-0.11,-0.23,-0.07,482.41,591.53
3.27,8.33,3.29,-0.1,0.06,-0.05,506.52,601.49
3.56,8.42,3.21,-0.13,0.06,-0.07,436.95,553.58
3.42,8.49,2.99,-0.08,0.0,0.01,510.75,588.25
3.77,8.52,3.02,-0.12,-0.03,0.01,517.52,608.31
3.34,8.3,3.1,-0.1,-0.02,-0.01,492.54,594.34
