ax,ay,az,gx,gy,gz,mav,rms,label_kontraksi,repetisi,id_orang
3.8,8.44,2.93,-0.05,0.03,0.02,0.0,0.0,0,0,1
3.98,8.35,2.73,-0.06,0.02,0.02,0.0,0.0,0,0,1
3.92,8.33,2.86,-0.06,0.04,-0.01,0.0,0.0,0,0,1
3.95,8.31,2.86,-0.0,0.06,-0.01,0.0,0.0,0,0,1
3.57,8.46,3.2,0.2,0.12,-0.04,0.0,0.0,0,0,1
3.57,8.49,2.61,0.36,0.13,-0.03,0.0,0.0,0,0,1
3.44,8.45,2.33,0.35,0.19,-0.09,0.0,0.0,0,0,1
3.64,9.85,1.62,0.29,0.15,-0.12,0.0,0.0,0,0,1
6.21,12.71,0.49,0.32,-0.17,0.1,309.89,422.15,0,0,1
6.81,13.84,-0.09,0.21,0.31,-0.31,483.84,753.87,0,0,1
2.45,10.64,-0.51,-0.35,-0.45,-1.29,445.81,609.61,0,0,1
-1.31,6.21,1.56,-1.26,-1.22,-1.56,1930.33,2315.32,1,0,1
-1.67,6.59,2.65,-0.11,0.13,0.32,900.21,1021.22,0,1,1
-0.53,6.86,2.89,0.03,0.23,1.17,722.89,913.8,0,1,1
-0.34,6.47,4.13,0.2,0.79,1.32,475.52,552.7,0,1,1
-0.19,7.45,3.9,0.8,0.61,1.67,415.81,488.3,0,1,1
2.37,8.48,2.29,0.87,0.45,1.31,440.13,531.69,0,1,1
3.68,10.79,0.71,0.77,0.21,0.82,464.0,522.82,0,1,1
5.16,9.48,-1.32,0.47,0.39,0.09,349.68,395.54,0,1,1
3.16,8.93,-0.27,0.18,-0.26,-0.19,315.31,344.56,0,1,1
4.18,11.29,-0.75,-0.46,-0.32,-0.55,0.0,356.84,0,1,1
4.25,12.2,-0.49,-0.83,0.32,-1.08,312.37,446.01,0,1,1
1.42,11.42,1.31,-0.1,0.27,0.26,0.0,305.42,0,1,1
2.32,10.54,0.64,-0.04,0.3,0.51,306.27,376.4,0,1,1
3.08,10.27,1.81,-0.1,0.02,0.53,362.34,510.48,0,1,1
4.99,12.06,0.53,0.03,0.27,0.41,512.26,688.69,0,1,1
4.05,11.58,0.74,-0.02,-0.47,0.21,462.02,710.92,0,1,1
2.09,10.22,-0.07,-0.22,-0.25,-0.72,412.55,516.66,0,1,1
0.85,7.24,0.78,-1.06,-1.01,-1.16,850.31,1266.86,0,1,1
1.81,5.91,3.21,-0.77,-0.57,-1.32,2135.36,2344.7,1,1,1
2.3,7.02,2.35,-0.17,0.66,-1.31,1191.02,1402.79,1,1,1
-0.76,7.13,2.1,-0.1,0.41,-1.44,1174.49,1296.04,0,2,1
-1.27,9.07,0.88,-0.02,-0.13,-0.1,954.8,1110.04,0,2,1
-1.84,8.2,1.6,-0.18,-0.01,0.44,671.03,771.83,0,2,1
-2.08,6.62,3.04,-0.28,0.07,1.2,514.63,600.06,0,2,1
-0.43,6.23,3.9,0.04,-0.0,1.6,400.3,470.45,0,2,1
1.52,8.29,2.99,0.27,0.58,1.55,468.39,566.59,0,2,1
2.21,8.79,2.84,0.49,0.02,0.97,434.61,492.87,0,2,1
2.73,8.79,1.93,0.51,-0.49,0.47,433.42,481.64,0,2,1
4.11,9.75,-0.22,0.21,-0.4,-0.04,383.04,428.64,0,2,1
2.4,10.34,0.07,-0.35,-0.7,-0.51,423.89,481.3,0,2,1
4.57,12.13,0.69,-0.35,0.09,-0.68,603.95,734.36,0,2,1
1.74,11.15,2.08,-0.33,-0.03,-0.81,687.09,827.33,0,2,1
2.34,10.83,1.41,-0.21,-0.06,-0.02,683.95,820.11,0,2,1
1.4,10.46,1.79,0.05,-0.01,0.27,601.38,658.78,0,2,1
2.91,11.55,1.37,0.21,-0.03,0.56,561.26,648.57,0,2,1
3.11,12.08,1.17,0.17,0.57,0.59,508.98,573.38,0,2,1
3.88,11.52,1.71,0.26,-0.17,0.18,589.27,741.24,0,2,1
0.71,9.99,0.19,0.13,0.16,-0.47,496.58,579.99,0,2,1
-0.39,7.95,-0.15,-0.57,-0.16,-0.71,547.93,728.83,0,2,1
-0.27,8.1,1.77,-0.8,-0.67,-0.73,776.63,1138.93,0,2,1
1.42,7.74,2.48,-0.54,0.02,-1.34,798.72,1058.39,0,2,1
-0.42,6.53,2.94,-0.14,0.55,-1.71,923.75,1288.58,0,2,1
-2.72,7.22,2.58,-0.14,-0.12,-0.19,1010.49,1358.66,0,2,1
-1.11,8.08,2.1,-0.08,0.16,0.23,1088.25,1377.39,0,2,1
-0.38,7.17,1.37,-0.11,-0.16,0.7,1045.81,1307.53,0,2,1
-0.48,6.14,2.21,-0.09,0.05,1.81,772.56,858.28,0,2,1
1.1,6.63,2.94,0.02,-0.58,2.16,602.77,702.28,0,2,1
3.06,7.91,4.01,0.47,0.48,1.38,511.28,587.65,0,2,1
2.9,10.18,2.06,0.74,0.55,0.88,450.09,530.9,0,2,1
5.27,11.61,-0.09,0.17,-0.02,0.61,436.44,521.17,0,2,1
4.87,9.4,1.73,-0.34,0.05,-0.4,349.9,394.74,0,2,1
4.19,9.43,2.07,-0.42,-0.32,-0.56,436.85,562.08,0,2,1
3.85,11.48,2.07,-0.43,0.23,-0.71,775.1,976.85,0,2,1
2.71,9.94,2.21,-0.16,0.18,0.14,751.6,868.37,0,2,1
3.27,8.71,2.06,0.09,-0.07,0.11,643.0,797.99,0,2,1
3.47,9.29,2.06,-0.01,0.18,0.11,712.65,823.87,0,2,1
5.6,11.15,2.11,0.26,-0.14,0.09,634.73,730.65,0,2,1
4.55,12.88,2.22,0.44,-0.0,0.37,586.98,679.22,0,2,1
4.69,11.8,0.64,0.28,-0.28,0.08,501.09,607.23,0,2,1
1.86,8.02,-0.09,-0.28,-0.13,-0.92,659.21,847.99,0,2,1
0.85,6.92,0.49,-0.92,-0.77,-1.02,709.91,978.84,0,2,1
1.26,6.37,3.26,-1.01,-0.38,-1.25,633.36,826.57,0,2,1
1.21,6.15,3.07,-0.44,0.42,-1.68,725.6,944.71,0,2,1
-1.81,7.14,2.92,0.02,0.17,-0.88,782.1,1059.92,0,2,1
-0.3,7.35,0.87,-0.15,0.09,0.49,969.34,1363.43,0,2,1
-1.28,7.26,3.17,0.08,0.44,1.36,948.66,1226.15,0,2,1
0.21,6.28,3.22,0.31,-0.27,1.75,667.48,732.94,0,2,1
1.85,8.72,1.71,0.36,0.59,1.48,530.4,620.32,0,2,1
3.88,8.28,1.49,0.36,0.21,0.76,467.85,531.66,0,2,1
4.19,10.72,0.77,0.05,0.07,0.51,387.86,436.95,0,2,1
3.62,10.42,1.6,-0.25,-0.15,0.31,0.0,329.62,0,2,1
5.46,9.93,1.13,-0.42,0.15,0.09,333.8,434.35,0,2,1
6.34,10.29,0.91,-0.22,0.34,-0.91,414.8,545.26,0,2,1
1.05,10.52,2.9,-0.08,0.23,-0.2,692.36,868.93,0,2,1
2.38,9.51,2.42,-0.04,0.23,0.04,493.91,572.55,0,2,1
2.77,8.86,2.49,0.07,0.04,0.13,455.62,573.27,0,2,1
4.01,9.23,1.45,0.02,0.16,0.0,558.82,670.22,0,2,1
3.48,10.47,2.54,0.08,0.03,0.09,550.12,648.52,0,2,1
5.74,12.61,1.78,0.16,-0.06,0.04,521.8,600.45,0,2,1
2.76,11.26,2.29,0.11,-0.26,-0.09,466.89,539.52,0,2,1
1.13,10.73,1.02,0.05,-0.18,-0.42,548.15,662.6,0,2,1
1.47,7.55,1.79,-0.36,-0.34,-0.99,576.43,773.59,0,2,1
0.83,7.59,1.61,-0.27,-0.17,-1.46,669.47,929.05,0,2,1
-1.23,6.66,1.07,-0.41,-0.15,-1.16,687.1,990.2,0,2,1
0.62,7.08,1.79,-0.68,0.07,-1.28,877.9,1208.0,0,2,1
-3.21,8.24,3.09,-0.28,0.06,-0.09,782.81,1040.33,0,2,1
-1.55,6.48,3.02,0.11,0.15,1.28,572.54,704.36,0,2,1
-0.98,5.89,2.83,-0.05,0.03,1.61,580.6,796.93,0,2,1
1.33,6.35,3.67,0.33,0.68,1.54,637.65,802.9,0,2,1
1.34,8.85,2.83,0.36,0.66,1.04,447.97,529.4,0,2,1
1.46,9.06,2.83,0.22,0.35,0.57,443.19,549.68,0,2,1
2.1,10.84,2.6,0.32,-0.15,0.41,382.69,439.56,0,2,1
4.55,12.01,-0.69,-0.07,-0.31,0.25,347.49,407.09,0,2,1
4.65,10.8,3.04,-0.76,0.25,-0.28,491.87,602.99,0,2,1
2.53,10.73,2.44,0.06,-0.09,-0.69,665.16,859.33,0,2,1
2.33,10.25,2.27,-0.16,0.1,0.1,667.26,773.05,0,2,1
2.18,9.05,1.79,0.15,0.09,0.14,625.44,742.24,0,2,1
2.64,8.89,1.89,-0.01,0.14,0.2,578.77,692.6,0,2,1
2.98,9.24,1.77,0.02,0.1,0.11,567.65,657.85,0,2,1
4.58,11.29,1.76,0.22,-0.09,0.25,562.21,637.28,0,2,1
4.54,12.67,1.73,0.18,0.18,0.24,536.18,597.52,0,2,1
3.41,10.72,1.12,0.1,0.16,0.02,468.53,552.78,0,2,1
2.26,8.94,1.2,-0.23,0.15,-0.57,442.11,496.41,0,2,1
0.91,8.5,1.38,-0.58,-0.15,-0.92,432.06,581.31,0,2,1
3.06,8.16,1.64,-0.83,-0.53,-1.34,413.86,504.51,0,2,1
1.16,5.77,2.91,-0.63,-0.2,-1.71,646.29,833.47,0,2,1
-1.87,6.11,3.28,-0.23,0.8,-1.96,766.45,1102.28,0,2,1
-3.86,7.47,2.53,-0.14,-0.3,-0.17,674.27,892.57,0,2,1
-2.08,8.13,2.65,0.03,0.1,0.55,483.62,563.78,0,2,1
-1.79,6.17,3.43,0.03,-0.08,1.3,465.63,557.6,0,2,1
-1.0,6.4,3.54,0.45,-0.08,1.7,671.2,863.05,0,2,1
0.1,7.21,2.26,0.8,0.61,1.73,1180.29,1478.43,1,2,1
2.95,9.79,-0.21,-0.55,0.04,-0.16,694.51,759.02,0,3,1
2.64,10.52,2.07,-0.69,-0.5,-0.07,525.01,568.88,0,3,1
5.29,11.62,1.3,-0.35,-0.01,-0.06,375.27,427.58,0,3,1
3.17,10.16,1.92,-0.19,0.27,-0.34,548.72,657.0,0,3,1
3.25,9.01,1.96,-0.06,0.11,0.1,551.59,680.39,0,3,1
2.99,9.03,1.68,-0.05,0.2,0.01,610.06,700.09,0,3,1
3.41,9.03,2.11,-0.02,0.23,0.01,608.67,690.34,0,3,1
3.79,9.9,1.96,-0.02,0.15,-0.03,571.31,652.25,0,3,1
3.93,11.08,1.98,0.07,0.04,0.02,499.79,568.76,0,3,1
5.21,11.9,1.77,0.18,0.17,0.01,498.91,624.01,0,3,1
3.22,10.48,0.45,-0.03,0.04,-0.45,449.28,524.05,0,3,1
0.93,9.07,1.42,-0.37,-0.22,-0.65,432.04,535.92,0,3,1
1.04,8.58,2.58,-0.36,-0.56,-0.78,497.74,687.17,0,3,1
1.92,7.56,1.83,-0.23,-0.17,-1.38,715.18,1002.51,0,3,1
-0.06,6.78,1.99,-0.39,0.14,-1.54,809.59,1017.82,0,3,1
-3.24,6.74,2.99,-0.37,0.43,-1.3,707.17,984.55,0,3,1
-3.56,7.04,3.13,-0.08,0.18,0.23,789.32,1103.43,0,3,1
-1.92,7.02,2.46,0.11,0.4,1.33,463.72,528.93,0,3,1
-1.17,6.27,3.04,0.14,-0.25,1.81,443.75,509.63,0,3,1
1.67,7.0,2.56,0.57,0.0,1.69,661.62,828.34,0,3,1
2.59,8.07,1.61,0.52,0.09,1.26,593.76,687.77,0,3,1
4.33,9.17,-0.1,0.28,-0.09,0.75,430.5,490.19,0,3,1
4.85,9.65,0.15,-0.17,-0.67,0.32,425.06,481.67,0,3,1
5.94,10.3,0.06,-0.43,-0.46,-0.02,337.88,380.51,0,3,1
4.99,9.9,0.73,-0.48,0.4,-0.7,517.38,659.24,0,3,1
2.98,11.19,1.12,-0.61,0.74,-0.69,931.68,1192.42,0,3,1
3.26,10.06,2.63,-0.02,0.3,-0.0,795.71,988.59,0,3,1
3.01,9.17,1.56,-0.05,0.25,0.04,780.39,904.73,0,3,1
1.92,9.07,2.1,-0.03,0.22,0.02,633.91,728.25,0,3,1
2.32,9.2,1.89,-0.05,0.17,0.0,648.7,775.64,0,3,1
2.82,9.72,1.88,-0.05,0.13,-0.02,725.34,838.53,0,3,1
4.34,12.29,1.82,0.08,0.0,0.09,677.26,735.52,0,3,1
2.69,11.96,2.17,0.34,0.13,0.4,651.86,794.37,0,3,1
3.57,10.91,0.66,0.2,0.28,-0.11,533.58,622.63,0,3,1
1.15,9.37,0.92,-0.29,-0.21,-0.59,511.58,581.12,0,3,1
0.37,7.92,1.74,-0.39,-0.41,-0.59,530.66,710.83,0,3,1
1.51,8.29,0.58,-0.38,-0.07,-0.84,948.54,1319.1,0,3,1
1.76,6.64,1.22,-0.63,-0.12,-1.61,633.89,869.49,0,3,1
0.03,6.8,3.31,-0.38,-0.04,-1.45,791.8,1092.99,0,3,1
-3.58,7.07,3.59,-0.13,-0.11,0.12,587.13,735.76,0,3,1
-0.69,6.23,3.28,0.21,-0.18,1.64,645.39,782.33,0,3,1
0.63,5.82,3.37,0.63,-0.02,1.88,514.42,601.64,0,3,1
1.69,7.81,2.31,0.79,0.76,1.42,493.85,588.91,0,3,1
2.74,10.81,0.78,0.75,0.48,0.79,478.84,546.42,0,3,1
2.28,11.07,0.33,-0.03,0.23,0.01,375.42,426.99,0,3,1
2.52,10.2,0.19,-0.75,-0.69,0.19,377.33,433.27,0,3,1
4.24,9.88,2.69,-0.27,-0.47,-0.36,393.95,484.44,0,3,1
5.13,12.05,0.5,-0.21,0.28,-0.45,567.97,718.2,0,3,1
0.5,10.98,3.01,-0.25,0.24,-0.14,730.72,942.92,0,3,1
2.27,9.5,1.56,-0.04,0.25,0.11,725.56,875.08,0,3,1
2.02,8.95,2.02,-0.06,0.15,0.14,662.15,750.84,0,3,1
2.29,9.5,1.92,-0.02,-0.01,0.13,677.45,792.2,0,3,1
2.98,10.89,2.35,0.12,-0.05,0.33,680.82,760.4,0,3,1
5.44,12.35,1.9,0.33,0.2,0.5,574.72,679.65,0,3,1
4.65,10.77,-0.29,0.04,-0.39,-0.18,487.23,553.57,0,3,1
3.08,9.15,0.68,-0.5,-0.03,-1.0,515.83,721.9,0,3,1
0.51,7.97,1.19,-0.81,0.25,-1.57,614.74,778.6,0,3,1
-1.27,6.42,3.17,-0.85,-0.67,-1.58,697.25,956.18,0,3,1
-0.63,6.97,2.98,-0.45,-0.2,-1.54,778.03,952.19,0,3,1
-0.96,6.56,3.27,-0.31,0.03,-1.82,649.3,882.4,0,3,1
-6.15,7.58,3.41,-0.02,0.51,-0.39,830.99,1109.43,0,3,1
-3.43,6.75,3.27,-0.03,0.04,0.69,536.57,626.56,0,3,1
-4.19,6.21,3.98,0.3,0.17,1.89,437.84,502.93,0,3,1
-1.51,6.45,3.41,0.5,0.4,2.32,593.22,710.18,0,3,1
0.49,5.35,2.5,0.62,0.67,1.92,668.07,772.0,0,3,1
2.88,9.44,0.64,0.61,-0.43,1.45,714.52,808.67,0,3,1
4.49,11.0,-0.54,-0.02,-0.66,0.65,538.13,626.01,0,3,1
3.01,9.35,1.01,-0.47,-0.78,-0.11,505.41,596.97,0,3,1
4.1,11.55,-0.27,-0.53,0.42,0.03,413.22,489.99,0,3,1
5.1,10.74,1.53,-0.46,0.38,-0.77,589.67,806.08,0,3,1
1.26,10.22,1.97,-0.09,0.11,0.2,764.31,940.02,0,3,1
2.23,9.55,1.79,0.06,0.28,0.13,655.56,762.37,0,3,1
2.67,9.66,1.94,0.09,0.16,0.26,624.61,733.13,0,3,1
4.69,10.94,2.18,0.36,-0.35,0.33,570.47,643.66,0,3,1
3.86,11.85,1.74,0.54,-0.37,0.66,539.93,608.54,0,3,1
5.47,11.11,-0.17,0.51,-0.04,0.37,505.01,571.9,0,3,1
4.03,10.73,-0.92,0.06,-0.38,-0.33,555.77,759.9,0,3,1
1.31,8.83,-0.71,-0.64,-0.56,-0.92,533.49,786.98,0,3,1
2.49,6.53,0.49,-0.74,-0.61,-1.06,732.91,973.54,0,3,1
2.88,6.94,0.32,-0.49,0.25,-1.55,693.9,897.87,0,3,1
-1.19,5.2,1.93,-0.39,1.09,-1.58,924.56,1240.86,0,3,1
0.8,8.2,0.72,0.16,-0.1,0.77,1685.26,1943.76,1,3,1
4.45,7.73,1.07,0.57,0.3,1.62,1011.69,1130.75,0,4,1
3.79,8.99,-0.25,0.55,0.28,0.78,783.27,861.54,0,4,1
3.55,10.11,-0.29,0.23,0.05,0.39,543.76,616.01,0,4,1
3.22,10.74,0.63,-0.16,-0.24,0.21,420.65,467.2,0,4,1
4.12,10.81,0.91,-0.47,0.28,0.05,352.77,379.91,0,4,1
5.87,10.01,0.02,-0.43,0.25,-0.22,0.0,0.0,0,4,1
5.2,9.13,-0.47,-0.69,0.64,-0.68,449.17,669.06,0,4,1
5.19,10.44,3.28,-0.1,0.52,-0.7,964.45,1314.57,0,4,1
2.99,10.65,2.1,0.08,0.42,-0.1,722.15,894.34,0,4,1
3.2,9.3,2.03,0.11,0.2,0.19,646.83,767.36,0,4,1
2.84,9.9,1.66,0.15,0.07,0.29,575.21,665.85,0,4,1
5.1,11.25,1.3,0.36,-0.03,0.58,558.19,640.44,0,4,1
6.96,11.25,0.52,0.34,0.2,0.64,458.12,533.67,0,4,1
6.44,10.13,-1.03,0.31,-0.0,-0.04,438.81,494.01,0,4,1
3.91,9.19,-0.5,0.05,-0.02,-0.48,426.84,529.31,0,4,1
2.73,8.54,-0.18,-0.3,-0.46,-0.62,390.81,508.65,0,4,1
1.66,7.89,0.97,-0.48,-0.62,-0.73,490.05,700.62,0,4,1
1.44,7.71,1.13,-0.25,-0.48,-0.71,588.23,869.68,0,4,1
2.43,8.01,0.44,-0.31,0.19,-1.07,733.73,900.61,0,4,1
1.91,7.78,0.73,-0.47,0.46,-1.43,882.18,1160.12,0,4,1
-1.78,8.03,1.88,-0.22,0.03,-0.48,893.99,1169.75,0,4,1
-1.08,9.36,1.44,-0.03,-0.33,0.32,1755.97,1996.82,1,4,1
0.0,6.06,1.88,0.35,0.05,1.97,1597.91,1738.07,1,4,1
4.71,8.86,0.11,0.49,0.7,1.59,1211.8,1352.07,1,4,1
4.75,8.11,-0.02,0.09,0.09,0.82,1034.92,1113.65,0,5,1
5.09,9.57,0.46,0.1,0.01,0.21,720.74,778.9,0,5,1
2.81,10.27,0.47,-0.07,-0.14,-0.24,566.79,590.79,0,5,1
3.86,11.57,-0.05,-0.23,-0.1,-0.17,350.27,387.23,0,5,1
4.99,10.58,0.14,-0.52,0.22,-0.11,0.0,0.0,0,5,1
4.15,8.84,2.39,-0.42,0.14,-0.58,0.0,342.76,0,5,1
3.69,10.87,1.75,-0.21,0.02,-0.56,459.58,583.11,0,5,1
2.44,10.28,0.88,0.01,0.12,-0.2,509.21,630.68,0,5,1
2.92,9.64,1.05,-0.08,0.14,0.05,459.07,548.94,0,5,1
2.61,9.51,1.3,-0.01,0.24,0.07,485.79,553.37,0,5,1
3.32,10.17,1.25,0.08,0.43,0.15,476.14,531.12,0,5,1
3.15,10.8,1.21,0.14,0.33,0.27,411.96,461.05,0,5,1
3.04,11.13,1.58,0.23,-0.09,0.52,337.17,384.49,0,5,1
3.75,11.2,0.77,0.18,-0.19,0.47,473.39,598.71,0,5,1
3.02,9.95,1.23,-0.04,0.01,0.02,345.15,413.77,0,5,1
2.51,9.71,0.85,-0.22,-0.13,-0.42,504.15,703.75,0,5,1
3.01,8.77,0.16,-0.58,-0.53,-0.87,606.22,848.91,0,5,1
2.24,7.86,1.5,-0.51,0.02,-1.25,719.49,951.12,0,5,1
1.48,7.52,0.96,-0.24,0.75,-1.46,896.11,1231.74,0,5,1
0.18,7.57,1.66,-0.31,0.32,-1.03,749.36,983.81,0,5,1
-1.25,9.27,1.47,-0.07,-0.22,-0.06,861.06,1085.23,0,5,1
-2.36,8.36,2.44,-0.07,-0.18,0.57,1648.24,1930.05,1,5,1
3.29,6.98,1.16,0.25,0.52,1.23,1036.97,1112.77,0,6,1
3.98,8.31,1.03,0.21,0.22,0.61,734.37,796.33,0,6,1
4.02,10.03,0.3,-0.04,0.1,0.02,545.23,587.16,0,6,1
3.52,10.82,0.45,-0.33,-0.37,-0.14,390.63,413.57,0,6,1
3.42,9.96,1.31,-0.09,-0.29,-0.55,0.0,304.91,0,6,1
4.6,11.37,0.74,-0.24,-0.01,-0.27,0.0,313.62,0,6,1
3.55,10.8,1.32,-0.42,1.16,-0.7,471.14,610.86,0,6,1
1.03,9.88,2.11,-0.24,0.17,-0.04,618.02,757.76,0,6,1
2.47,9.29,1.56,-0.06,0.33,0.08,590.72,690.0,0,6,1
1.68,9.25,1.98,-0.06,0.08,0.08,596.57,662.29,0,6,1
2.79,9.84,1.67,0.07,0.11,0.1,560.45,637.37,0,6,1
3.84,12.28,1.93,0.21,-0.15,0.27,509.0,566.46,0,6,1
3.61,12.22,1.56,0.38,-0.18,0.68,431.43,476.58,0,6,1
3.48,9.57,1.33,0.04,-0.42,0.3,367.25,412.9,0,6,1
3.11,9.05,1.45,-0.24,-0.29,-0.28,364.9,449.38,0,6,1
2.92,8.13,1.31,-0.27,-0.37,-0.95,514.02,785.48,0,6,1
1.0,7.28,1.81,-0.4,-0.71,-1.18,527.07,761.79,0,6,1
0.76,6.93,2.11,-0.1,-0.07,-1.13,513.65,786.4,0,6,1
0.94,8.54,0.12,-0.05,0.48,-1.03,747.41,1009.43,0,6,1
-0.41,8.44,1.0,-0.45,-0.1,-1.13,680.1,886.14,0,6,1
-2.63,8.11,2.01,-0.1,0.05,-0.0,1018.81,1459.97,1,6,1
1.38,7.1,1.59,0.1,0.67,1.42,626.41,714.73,0,7,1
1.55,8.82,1.61,0.14,0.67,1.0,416.88,503.42,0,7,1
2.98,9.45,1.39,0.04,0.41,0.55,403.9,473.05,0,7,1
2.51,9.16,1.62,-0.03,-0.18,0.45,307.81,365.09,0,7,1
3.51,9.35,0.93,-0.18,-0.04,0.37,0.0,0.0,0,7,1
4.93,10.73,1.16,-0.42,-0.16,-0.12,0.0,0.0,0,7,1
4.47,10.59,1.74,-0.25,0.85,-0.8,594.26,748.01,0,7,1
3.01,10.19,2.43,-0.13,-0.01,-0.65,731.33,933.42,0,7,1
1.1,10.08,2.53,-0.01,0.31,-0.18,627.34,763.81,0,7,1
1.98,9.64,1.95,-0.01,0.02,0.1,574.54,663.58,0,7,1
1.55,9.38,2.24,-0.02,-0.03,0.15,611.37,684.99,0,7,1
2.01,9.73,2.28,0.02,0.0,0.17,565.78,632.49,0,7,1
3.23,11.6,1.8,0.11,-0.13,0.26,532.3,590.68,0,7,1
2.83,11.36,1.87,0.26,-0.37,0.33,446.8,504.88,0,7,1
2.26,10.89,1.3,0.44,-0.64,0.54,421.27,485.91,0,7,1
3.03,9.67,-0.14,0.27,-0.05,0.04,432.45,510.35,0,7,1
3.18,8.74,0.36,0.22,-0.37,-0.41,467.29,706.68,0,7,1
3.06,10.11,-1.18,-0.31,-0.56,-1.16,421.77,493.61,0,7,1
1.43,6.26,0.38,-0.78,-0.35,-1.6,494.27,654.79,0,7,1
-0.31,5.79,1.77,-0.73,-0.05,-1.5,631.39,912.33,0,7,1
-2.05,8.04,1.67,-0.39,0.53,-0.68,475.73,626.79,0,7,1
-1.57,9.45,1.74,0.05,-0.32,0.4,1427.16,1825.59,1,7,1
1.2,8.03,1.67,0.29,0.52,1.58,720.64,770.47,0,8,1
2.98,9.6,1.06,0.49,0.74,1.04,422.52,486.44,0,8,1
3.38,9.8,0.85,0.33,0.21,0.66,377.23,417.94,0,8,1
4.03,8.64,0.28,-0.09,0.31,0.16,309.14,329.93,0,8,1
2.93,8.8,0.65,-0.63,0.06,-0.05,0.0,0.0,0,8,1
3.48,9.68,1.33,-0.31,0.58,-0.56,0.0,0.0,0,8,1
4.08,11.76,1.83,-0.31,-0.09,-0.37,0.0,372.43,0,8,1
3.4,10.46,0.97,-0.13,-0.06,-0.68,630.35,826.87,0,8,1
1.34,10.01,1.33,-0.17,-0.04,-0.19,620.62,771.72,0,8,1
1.54,9.74,0.82,-0.12,0.13,0.04,542.65,613.84,0,8,1
2.08,9.71,1.36,-0.11,0.31,0.22,635.79,712.86,0,8,1
1.96,9.56,1.42,0.06,0.41,0.27,577.86,657.63,0,8,1
3.18,10.51,1.74,0.12,0.15,0.39,509.6,572.39,0,8,1
3.71,12.1,1.28,0.18,-0.02,0.44,398.44,452.0,0,8,1
4.17,11.59,0.5,0.18,-0.09,0.33,317.64,381.09,0,8,1
2.59,9.89,0.8,-0.12,0.28,-0.39,405.81,563.39,0,8,1
1.81,8.23,0.92,-0.44,-0.16,-1.1,312.68,379.51,0,8,1
0.07,8.02,2.77,-0.62,-0.73,-1.29,336.68,412.93,0,8,1
0.59,7.24,2.53,-0.4,-0.27,-1.28,390.84,483.84,0,8,1
-0.5,6.76,1.68,-0.48,0.39,-1.57,366.71,445.75,0,8,1
-2.58,6.66,3.16,-0.28,-0.26,-0.76,442.58,541.49,0,8,1
-3.0,7.17,2.89,0.01,-0.16,0.49,345.08,398.62,0,8,1
-2.09,8.65,1.95,0.11,0.42,0.91,317.3,361.67,0,8,1
-1.2,7.69,1.87,0.28,0.58,1.35,328.8,367.48,0,8,1
-0.04,8.07,2.19,0.35,0.37,1.44,317.58,355.94,0,8,1
1.05,8.97,1.73,0.3,0.04,1.27,351.72,400.55,0,8,1
2.54,10.96,0.03,0.02,-0.02,0.96,0.0,325.1,0,8,1
3.88,9.04,0.25,-0.37,-0.01,0.69,0.0,0.0,0,8,1
4.63,10.56,0.11,-0.22,0.63,-0.31,0.0,0.0,0,8,1
3.91,12.06,0.96,-0.41,-0.24,-0.26,0.0,0.0,0,8,1
4.01,10.6,2.41,-0.12,0.08,-0.55,722.17,910.22,0,8,1
1.41,10.5,1.07,-0.04,-0.04,-0.29,560.03,690.39,0,8,1
2.24,9.76,1.7,-0.23,0.21,0.17,561.87,645.55,0,8,1
2.19,9.23,2.01,-0.0,0.05,0.16,547.38,639.58,0,8,1
3.06,10.52,1.61,0.07,0.05,0.27,503.52,567.37,0,8,1
3.5,10.53,1.53,0.03,0.25,0.15,484.21,521.22,0,8,1
2.0,10.93,2.46,0.11,-0.49,0.15,380.39,428.7,0,8,1
3.63,11.31,0.98,0.16,-0.32,-0.01,311.17,355.01,0,8,1
1.83,10.11,1.45,-0.23,-0.06,-0.32,358.97,469.52,0,8,1
2.29,9.32,0.79,-0.31,-0.51,-0.72,0.0,380.86,0,8,1
1.44,8.19,1.89,-0.13,-0.5,-1.07,335.83,459.44,0,8,1
0.07,7.94,1.92,-0.3,-0.2,-1.2,406.32,564.19,0,8,1
0.65,9.01,0.59,-0.26,0.11,-1.1,459.02,693.58,0,8,1
-2.25,6.61,2.41,-0.2,-0.42,-0.63,462.57,600.7,0,8,1
-1.94,8.69,1.85,-0.01,-0.12,0.25,501.04,695.73,0,8,1
-1.19,7.22,2.08,0.07,0.42,0.74,609.29,798.53,0,8,1
-0.96,7.52,1.99,0.33,0.49,1.37,405.06,482.14,0,8,1
0.69,7.36,2.11,0.26,0.55,1.41,302.86,354.04,0,8,1
1.83,10.14,1.06,0.28,0.25,1.2,316.51,395.51,0,8,1
2.38,9.62,1.08,-0.08,0.02,0.81,0.0,340.27,0,8,1
3.11,10.51,0.51,-0.12,-0.0,0.55,0.0,0.0,0,8,1
4.59,9.91,-0.13,-0.35,-0.31,0.33,0.0,0.0,0,8,1
4.71,9.52,0.42,-0.62,0.08,-0.2,0.0,349.68,0,8,1
4.72,10.24,2.72,-0.36,-0.66,-0.48,548.53,741.21,0,8,1
2.75,10.78,2.99,0.18,0.5,-0.43,843.58,1069.61,0,8,1
1.79,9.67,1.66,-0.03,0.41,0.02,640.29,760.27,0,8,1
2.8,9.22,2.2,-0.11,0.23,0.12,642.31,730.83,0,8,1
3.49,9.94,1.77,0.05,0.06,0.11,618.05,694.91,0,8,1
3.85,11.1,1.79,0.08,0.07,0.14,574.68,623.54,0,8,1
2.51,11.28,2.62,0.25,-0.16,0.14,438.09,497.05,0,8,1
3.44,10.98,1.29,0.1,-0.18,0.02,411.97,451.67,0,8,1
1.56,10.08,1.57,-0.42,-0.05,-0.2,345.41,398.48,0,8,1
2.15,8.11,2.21,-0.38,-0.85,-0.63,370.74,477.15,0,8,1
1.76,7.33,1.27,-0.17,-0.01,-1.37,417.4,631.48,0,8,1
0.57,6.5,1.46,-0.27,0.18,-1.68,528.61,717.56,0,8,1
-1.65,6.58,2.59,-0.32,-0.19,-1.21,366.17,456.72,0,8,1
-1.83,8.74,1.86,-0.11,0.23,-0.45,346.99,428.19,0,8,1
-1.92,7.59,2.31,-0.22,0.08,0.4,437.06,562.77,0,8,1
-2.41,7.79,2.65,-0.21,0.16,1.36,393.93,471.07,0,8,1
0.89,7.61,2.39,-0.1,-0.38,1.65,303.79,385.26,0,8,1
2.71,8.94,2.53,-0.05,0.6,1.09,460.82,578.18,0,8,1
2.0,9.07,3.05,0.03,0.43,0.76,457.84,595.71,0,8,1
2.1,10.16,2.3,0.12,-0.58,0.82,417.98,473.51,0,8,1
4.59,9.47,1.93,-0.01,0.01,0.5,330.01,388.31,0,8,1
4.45,9.92,2.02,-0.06,0.2,0.02,301.31,355.98,0,8,1
4.82,9.37,2.19,-0.33,0.02,-0.5,308.85,369.47,0,8,1
0.75,9.24,3.88,-0.09,0.36,-0.54,682.32,875.09,0,8,1
3.67,10.59,2.38,0.17,0.31,-0.12,865.48,1047.4,0,8,1
3.25,9.84,2.21,0.04,0.01,-0.16,798.88,922.28,0,8,1
1.56,9.16,2.31,-0.08,0.33,-0.06,745.42,845.53,0,8,1
2.6,9.39,2.69,0.06,0.07,0.09,693.49,756.65,0,8,1
3.54,10.88,2.28,0.17,0.15,0.07,666.5,725.2,0,8,1
2.75,11.14,2.25,0.08,0.22,0.08,575.56,635.92,0,8,1
1.6,11.07,2.69,0.13,-0.36,0.21,485.29,570.06,0,8,1
2.78,10.27,1.36,0.18,-0.28,-0.01,431.86,527.25,0,8,1
1.76,8.85,1.76,-0.12,-0.5,-0.5,392.31,472.86,0,8,1
0.91,8.08,2.34,-0.31,-0.72,-0.76,411.1,524.91,0,8,1
1.58,7.86,1.56,-0.2,-0.31,-1.01,402.19,600.63,0,8,1
0.4,7.22,1.42,-0.31,-0.13,-1.2,376.56,462.14,0,8,1
-0.77,7.35,1.55,-0.47,0.04,-1.13,477.58,626.44,0,8,1
-1.94,7.59,2.72,-0.28,0.01,-0.47,343.87,389.96,0,8,1
-2.07,8.35,2.35,-0.08,0.13,0.35,479.94,660.82,0,8,1
-1.45,6.97,2.3,-0.0,0.5,1.06,430.85,525.08,0,8,1
-0.29,7.49,2.38,0.08,0.13,1.43,361.25,481.46,0,8,1
0.66,9.29,2.29,0.17,0.27,1.35,372.51,436.23,0,8,1
1.52,8.46,2.8,-0.04,0.61,0.87,329.39,383.0,0,8,1
2.38,9.06,2.66,0.03,-0.03,0.64,318.84,368.45,0,8,1
3.35,9.96,1.4,-0.22,-0.44,0.43,304.65,345.21,0,8,1
3.43,9.3,1.76,-0.34,-0.32,0.15,0.0,0.0,0,8,1
3.95,9.56,2.3,-0.37,0.16,-0.22,0.0,361.99,0,8,1
3.42,10.74,2.23,-0.05,0.32,-0.36,646.5,809.34,0,8,1
4.37,10.69,2.29,0.1,-0.24,-0.35,752.09,947.94,0,8,1
1.4,9.71,2.49,0.05,0.08,-0.14,545.3,649.66,0,8,1
1.81,9.23,2.51,-0.06,0.2,0.11,554.56,641.12,0,8,1
1.96,9.12,2.46,-0.04,0.23,0.06,506.02,593.84,0,8,1
2.33,9.54,2.26,-0.0,0.21,0.11,505.93,564.27,0,8,1
3.39,11.16,2.35,0.04,0.19,0.26,526.62,590.63,0,8,1
3.31,12.31,2.3,0.15,-0.31,0.44,500.31,585.52,0,8,1
3.76,10.92,1.36,0.16,-0.19,0.15,524.35,695.88,0,8,1
2.61,9.34,1.36,-0.01,-0.09,-0.32,383.2,421.9,0,8,1
2.67,8.64,0.75,-0.11,-0.7,-0.62,343.99,384.47,0,8,1
1.5,8.94,1.22,-0.19,-0.34,-0.86,399.39,520.27,0,8,1
1.03,7.54,1.74,-0.35,-0.12,-1.07,458.78,598.38,0,8,1
-0.26,8.73,1.87,-0.55,-0.38,-1.24,461.64,674.09,0,8,1
-0.22,8.17,1.91,-0.09,0.56,-1.19,512.67,671.61,0,8,1
-3.0,7.87,2.26,-0.08,0.26,-0.3,601.69,829.71,0,8,1
-1.73,7.73,2.31,-0.05,-0.31,0.58,1300.14,1711.56,1,8,1
0.62,7.74,2.92,0.12,0.26,1.34,565.68,672.12,0,9,1
3.01,9.64,1.81,0.11,0.43,0.76,530.3,649.73,0,9,1
2.22,9.63,2.33,0.13,0.38,0.28,532.35,648.73,0,9,1
0.6,9.98,2.07,-0.01,-0.02,0.21,390.85,455.98,0,9,1
1.88,10.53,1.23,-0.39,-0.2,0.39,362.93,401.29,0,9,1
2.6,8.9,3.49,-0.36,0.47,0.23,0.0,0.0,0,9,1
3.3,10.18,4.73,0.16,0.05,0.23,457.17,583.95,0,9,1
5.92,11.06,3.33,0.15,0.18,0.12,763.04,981.53,0,9,1
1.33,8.93,2.17,-0.03,0.31,-0.14,701.9,897.16,0,9,1
2.29,8.56,2.67,-0.06,0.06,0.1,716.1,812.84,0,9,1
2.91,9.1,2.83,0.0,0.09,-0.01,674.85,781.37,0,9,1
3.0,9.83,2.93,-0.05,0.17,0.0,630.19,703.21,0,9,1
3.85,10.85,2.95,0.03,-0.19,0.09,565.27,620.06,0,9,1
3.5,11.05,2.43,0.07,-0.51,0.2,449.91,524.16,0,9,1
3.28,9.89,1.95,-0.16,0.1,-0.23,387.17,446.28,0,9,1
1.79,9.55,2.53,-0.08,-0.23,-0.44,365.01,435.67,0,9,1
2.7,8.38,1.84,-0.07,-0.54,-0.81,453.9,618.65,0,9,1
1.26,8.04,1.74,-0.37,-0.59,-1.25,496.64,645.53,0,9,1
0.94,5.91,1.98,-0.22,0.37,-1.52,380.38,547.11,0,9,1
-1.3,7.16,2.55,-0.07,0.25,-1.03,511.1,667.37,0,9,1
-1.52,8.68,1.24,-0.23,-0.18,-0.56,447.15,542.87,0,9,1
-2.08,7.83,2.7,-0.18,-0.48,0.22,1239.33,1682.05,1,9,1
-0.06,7.64,2.43,0.11,0.35,1.43,545.77,633.17,0,10,1
1.64,7.33,2.67,-0.03,0.53,1.35,571.03,667.81,0,10,1
1.92,8.04,2.6,0.01,0.68,0.86,425.33,498.54,0,10,1
3.05,9.01,1.57,-0.18,0.43,0.46,370.91,439.51,0,10,1
2.38,7.94,2.55,-0.55,0.37,0.18,304.13,353.95,0,10,1
3.39,9.65,2.92,-0.16,0.43,-0.13,308.53,359.11,0,10,1
3.6,12.96,3.69,0.05,0.16,-0.35,427.3,594.52,0,10,1
3.58,11.28,3.22,0.5,-0.2,-0.19,671.64,845.95,0,10,1
0.51,9.64,2.66,-0.14,-0.24,0.04,496.13,582.54,0,10,1
1.29,8.76,3.37,-0.12,0.37,-0.05,534.39,604.88,0,10,1
1.7,9.24,2.66,0.03,0.18,0.04,590.78,688.49,0,10,1
1.51,9.42,3.19,-0.07,0.04,0.05,536.98,592.46,0,10,1
2.66,11.06,3.15,-0.05,-0.02,0.16,507.93,559.05,0,10,1
2.07,11.34,3.45,-0.06,-0.25,0.3,518.75,602.47,0,10,1
2.99,10.86,3.27,0.02,-0.86,0.06,517.33,642.32,0,10,1
2.26,9.48,3.27,-0.06,-0.34,-0.54,424.05,501.76,0,10,1
0.28,6.74,3.27,-0.01,-0.82,-0.99,359.16,437.05,0,10,1
-0.02,7.44,2.15,0.1,-0.51,-1.14,392.54,494.8,0,10,1
0.23,7.41,1.83,-0.18,0.33,-1.39,439.62,572.64,0,10,1
-0.8,7.48,2.44,-0.27,-0.32,-1.15,537.91,706.92,0,10,1
-2.73,6.94,2.42,-0.24,0.08,-0.87,450.46,584.62,0,10,1
-2.16,8.48,1.61,-0.01,0.15,0.38,488.84,635.78,0,10,1
-1.06,6.91,2.37,-0.03,0.2,0.81,336.12,387.84,0,10,1
-1.23,7.3,2.73,0.07,0.08,1.35,386.31,472.49,0,10,1
-0.25,7.35,2.87,-0.0,0.35,1.31,469.64,549.95,0,10,1
1.67,9.74,1.92,0.06,0.43,1.01,633.24,739.27,0,10,1
1.02,8.81,2.68,-0.21,0.49,0.65,502.11,569.08,0,10,1
1.1,9.23,1.98,-0.2,0.82,0.47,453.07,512.42,0,10,1
1.86,8.54,2.75,-0.31,-0.08,0.33,405.3,456.5,0,10,1
2.25,11.02,4.15,-0.06,0.13,0.0,437.16,492.07,0,10,1
4.53,11.86,2.76,0.39,-0.08,0.4,650.34,788.6,0,10,1
3.16,9.33,2.29,0.07,0.08,0.21,598.54,714.73,0,10,1
2.68,8.71,2.15,-0.13,0.38,-0.04,614.93,723.23,0,10,1
2.09,8.93,2.58,-0.08,0.3,-0.11,563.43,633.26,0,10,1
2.26,9.18,3.01,-0.02,0.1,-0.04,559.84,629.26,0,10,1
2.9,10.03,2.77,-0.04,0.02,0.0,581.91,642.99,0,10,1
3.28,11.25,2.76,0.03,-0.16,0.18,545.98,590.24,0,10,1
3.1,10.88,2.81,-0.14,-0.56,0.18,459.1,545.04,0,10,1
2.85,10.69,2.6,-0.31,-0.04,-0.44,408.29,456.99,0,10,1
1.71,8.86,2.0,-0.23,-0.3,-0.99,375.2,458.68,0,10,1
-0.56,6.97,2.01,-0.24,-0.4,-1.34,391.66,495.27,0,10,1
-0.02,7.07,2.47,-0.35,-0.31,-1.25,463.95,577.05,0,10,1
-1.52,6.56,3.12,-0.48,0.07,-1.35,598.04,828.26,0,10,1
-1.94,6.97,3.4,-0.31,-0.04,-0.99,472.96,565.74,0,10,1
-2.3,7.96,3.32,-0.04,0.04,0.03,381.36,448.51,0,10,1
-1.64,7.31,3.22,0.09,0.37,0.84,349.04,403.98,0,10,1
-2.1,7.34,3.25,-0.01,0.08,1.24,510.66,716.37,0,10,1
0.26,7.61,3.45,0.17,0.25,1.29,601.55,710.32,0,10,1
0.26,7.71,3.49,0.18,0.3,1.18,792.23,950.85,0,10,1
0.26,8.79,2.85,0.26,0.47,0.96,708.5,833.6,0,10,1
1.07,9.35,1.94,0.19,0.26,0.67,533.3,619.57,0,10,1
2.98,10.31,1.05,-0.06,0.22,0.45,437.68,508.29,0,10,1
2.87,9.32,2.06,-0.43,0.33,0.09,351.12,414.55,0,10,1
3.5,9.26,3.68,-0.12,0.53,-0.09,373.1,426.26,0,10,1
4.33,10.45,1.59,0.04,0.75,-0.24,755.25,913.09,0,10,1
2.87,10.63,2.56,-0.12,0.38,-0.39,582.17,690.33,0,10,1
1.38,9.57,3.0,-0.06,0.06,-0.02,559.7,650.48,0,10,1
2.01,8.99,2.43,-0.03,-0.02,0.07,504.22,581.9,0,10,1
1.74,8.98,2.66,-0.11,0.12,0.05,537.97,613.34,0,10,1
1.95,9.11,2.84,-0.06,0.11,0.01,508.25,582.1,0,10,1
2.14,9.55,2.45,-0.05,0.11,0.12,505.59,575.91,0,10,1
2.63,10.45,2.41,-0.05,0.11,0.26,519.36,586.68,0,10,1
4.6,11.7,1.95,-0.15,-0.28,0.31,662.78,824.69,0,10,1
3.12,11.38,3.37,-0.13,-0.43,0.11,528.26,653.19,0,10,1
2.55,9.82,2.43,-0.04,-0.24,-0.48,475.9,552.47,0,10,1
1.48,8.74,2.3,-0.23,-0.37,-0.99,370.15,450.62,0,10,1
0.71,5.74,2.88,-0.27,-0.43,-1.39,430.83,487.07,0,10,1
0.16,7.1,2.64,-0.51,-0.22,-1.36,453.31,602.56,0,10,1
-1.21,7.87,3.3,-0.38,0.01,-1.31,454.7,618.96,0,10,1
-2.65,7.14,3.65,-0.21,-0.02,-0.99,451.66,588.34,0,10,1
-4.44,8.12,3.77,-0.23,0.04,-0.06,385.81,443.88,0,10,1
-2.73,6.66,4.29,0.08,0.64,1.05,355.07,437.83,0,10,1
-1.27,5.98,3.67,0.3,0.27,1.66,509.39,632.99,0,10,1
0.16,8.66,2.4,0.19,0.15,1.51,657.02,785.19,0,10,1
1.86,8.49,2.72,0.31,0.37,0.92,617.62,717.2,0,10,1
2.3,9.55,1.93,0.34,-0.24,0.55,547.57,618.04,0,10,1
1.48,10.13,1.34,-0.07,-0.3,0.37,521.96,615.66,0,10,1
1.85,9.62,2.01,-0.37,-0.09,0.09,390.94,447.46,0,10,1
3.76,9.8,1.81,-0.28,0.37,-0.33,347.01,413.52,0,10,1
1.28,11.15,2.48,-0.12,0.2,-0.4,614.42,747.74,0,10,1
2.78,11.22,1.88,0.04,0.13,-0.12,603.8,699.89,0,10,1
2.48,9.96,1.69,-0.05,0.09,-0.12,556.84,631.95,0,10,1
1.36,9.28,2.12,-0.09,-0.05,0.13,545.58,634.0,0,10,1
1.88,8.98,2.45,-0.09,0.06,0.05,557.59,646.41,0,10,1
1.56,9.49,2.61,-0.03,0.1,0.04,527.16,599.08,0,10,1
3.19,11.29,2.34,-0.06,-0.12,0.24,548.52,611.86,0,10,1
3.29,11.87,2.27,-0.05,-0.21,0.26,527.15,616.75,0,10,1
3.02,11.48,2.58,-0.06,-0.58,-0.06,512.46,592.3,0,10,1
0.54,9.85,2.75,-0.16,-0.55,-0.63,380.63,441.52,0,10,1
0.05,6.89,3.06,-0.02,-0.28,-0.88,429.64,557.64,0,10,1
0.13,8.03,1.32,-0.1,-0.32,-1.0,372.81,446.55,0,10,1
0.27,7.65,1.43,-0.47,-0.13,-1.46,445.24,573.69,0,10,1
-1.81,6.81,2.01,-0.28,0.55,-1.27,397.25,481.48,0,10,1
-2.51,6.39,3.15,-0.34,-0.61,-0.35,407.63,479.13,0,10,1
-2.05,6.7,3.5,0.0,0.39,0.9,370.13,423.06,0,10,1
-2.14,7.71,2.94,0.17,1.17,1.47,469.37,539.37,0,10,1
1.3,6.92,2.84,0.32,0.37,1.58,645.08,810.52,0,10,1
1.23,9.14,1.73,0.48,0.94,1.16,836.72,1016.6,0,10,1
2.23,9.5,1.24,0.22,0.28,0.92,625.27,702.08,0,10,1
2.95,10.47,0.61,0.03,-0.33,0.86,525.08,595.47,0,10,1
3.66,10.14,0.62,-0.24,-0.48,0.77,441.24,504.78,0,10,1
4.68,8.71,2.17,-0.45,-0.29,0.46,330.15,370.54,0,10,1
7.04,9.69,2.62,-0.25,0.55,-0.43,479.18,572.78,0,10,1
2.73,10.08,2.09,-0.18,0.29,-1.03,843.95,1016.41,0,10,1
1.56,9.92,2.99,-0.04,0.25,-0.33,675.34,758.2,0,10,1
2.57,9.82,2.0,-0.0,0.26,-0.01,547.39,629.34,0,10,1
2.58,9.04,1.97,0.02,0.02,0.04,528.65,602.22,0,10,1
2.55,9.35,1.95,-0.02,0.16,-0.04,546.95,635.62,0,10,1
2.78,10.57,2.2,-0.04,0.06,0.0,538.62,596.03,0,10,1
3.28,11.85,2.29,-0.07,-0.19,0.32,579.03,674.16,0,10,1
4.81,11.77,2.71,0.01,-0.53,0.36,584.65,732.27,0,10,1
2.59,9.62,2.73,-0.13,-0.53,-0.26,446.81,520.21,0,10,1
2.55,9.47,2.29,0.04,-0.74,-0.66,323.45,379.68,0,10,1
1.36,7.11,1.55,-0.19,-0.43,-1.18,399.4,546.77,0,10,1
-0.0,6.64,1.6,-0.24,-0.06,-1.15,473.99,624.02,0,10,1
0.39,7.68,2.0,-0.38,-0.15,-1.33,521.83,681.98,0,10,1
-1.3,6.96,2.18,-0.58,-0.19,-1.47,971.44,1337.96,0,10,1
-4.09,7.11,3.47,-0.17,0.24,0.43,586.82,658.97,0,10,1
-1.8,6.71,3.09,0.14,0.23,1.45,807.86,1218.46,0,10,1
-0.54,7.08,2.86,0.3,0.18,1.75,540.39,670.5,0,10,1
1.56,9.08,2.07,0.2,0.35,1.39,548.81,620.16,0,10,1
3.84,10.06,0.71,0.24,0.1,0.89,563.03,692.26,0,10,1
3.09,9.46,1.22,0.07,0.15,0.27,411.72,484.03,0,10,1
1.87,9.27,1.84,0.09,-0.24,0.18,413.56,471.11,0,10,1
4.21,8.68,1.07,-0.28,0.9,-0.33,373.69,414.93,0,10,1
1.54,11.07,3.34,-0.4,0.06,-0.84,378.35,437.84,0,10,1
0.61,11.32,2.97,0.01,-0.23,-0.24,567.99,669.42,0,10,1
2.84,10.49,1.9,0.33,-0.29,-0.03,525.28,641.63,0,10,1
0.82,10.13,0.59,-0.09,-0.04,-0.04,505.64,581.76,0,10,1
0.79,9.3,2.03,-0.13,0.14,0.12,449.43,513.68,0,10,1
1.64,10.76,1.61,0.01,0.15,0.1,429.39,496.46,0,10,1
1.61,11.88,2.25,-0.09,0.22,0.37,446.81,501.79,0,10,1
2.36,11.47,2.35,-0.16,-0.08,0.59,454.45,512.43,0,10,1
2.98,10.76,1.96,-0.12,-0.24,0.18,337.17,384.74,0,10,1
2.3,9.29,1.62,-0.05,-0.24,-0.48,371.52,421.34,0,10,1
1.24,8.28,1.05,-0.32,-0.33,-0.99,312.28,389.97,0,10,1
0.21,7.62,1.99,-0.39,-0.44,-1.17,459.53,678.67,0,10,1
-1.32,7.73,2.32,-0.46,-0.19,-1.02,505.06,679.84,0,10,1
1.0,8.82,2.61,-0.58,0.02,-1.44,368.44,434.31,0,10,1
-2.63,5.21,2.56,-0.39,0.04,-1.48,455.85,578.73,0,10,1
-3.21,6.8,4.14,-0.17,-0.19,0.46,0.0,343.88,0,10,1
-2.63,7.04,4.33,0.19,0.15,1.09,351.62,403.79,0,10,1
-2.11,7.84,2.96,0.56,0.55,1.68,558.63,672.13,0,10,1
0.63,7.63,2.28,0.31,-0.01,1.48,533.93,643.08,0,10,1
0.2,8.31,1.99,0.14,-0.36,1.13,506.12,597.51,0,10,1
0.78,9.16,1.99,0.15,0.06,0.86,534.1,655.31,0,10,1
2.83,9.58,1.54,0.05,0.26,0.4,406.33,459.92,0,10,1
3.72,10.31,1.54,-0.33,-0.25,0.4,328.08,375.37,0,10,1
4.57,9.28,2.21,-0.17,0.41,-0.42,417.57,533.71,0,10,1
2.78,9.98,2.08,0.19,-0.11,-0.6,575.34,712.24,0,10,1
3.64,11.51,0.64,-0.09,-0.03,-0.24,506.64,595.04,0,10,1
1.44,9.95,1.72,-0.06,0.1,-0.08,488.94,579.8,0,10,1
2.32,9.47,1.34,0.0,0.1,0.13,433.14,496.87,0,10,1
2.67,9.83,1.82,-0.11,0.21,0.01,441.07,488.43,0,10,1
2.32,11.55,2.36,0.23,0.24,0.25,476.59,556.52,0,10,1
3.54,12.98,1.46,-0.01,0.23,0.15,515.76,615.88,0,10,1
1.84,10.89,2.28,-0.33,-0.26,-0.18,367.22,426.34,0,10,1
1.55,8.67,1.43,-0.25,-0.3,-0.65,331.1,392.81,0,10,1
1.34,7.56,1.23,-0.15,-0.39,-0.95,373.25,529.5,0,10,1
0.17,7.18,1.8,-0.59,-0.63,-1.23,429.16,538.69,0,10,1
-0.77,7.48,2.69,-0.41,0.07,-1.5,501.89,657.16,0,10,1
-2.14,5.07,3.24,-0.32,0.07,-1.41,466.51,563.93,0,10,1
-2.97,6.76,3.68,-0.16,-0.25,0.25,397.07,454.18,0,10,1
-3.35,7.0,3.17,0.2,0.39,1.29,390.33,465.54,0,10,1
-1.02,6.87,3.06,0.43,0.2,1.91,512.89,610.28,0,10,1
1.13,8.44,2.4,0.29,0.59,1.54,610.32,785.94,0,10,1
1.78,8.78,2.15,0.2,0.44,0.84,555.76,629.93,0,10,1
0.68,8.69,2.33,-0.11,0.05,0.73,504.44,569.26,0,10,1
4.4,9.85,0.81,-0.25,-0.19,0.35,444.6,501.09,0,10,1
3.49,8.99,2.71,-0.36,-0.45,-0.12,366.5,410.82,0,10,1
3.2,9.84,1.42,-0.3,0.72,-0.62,496.78,585.79,0,10,1
3.77,10.81,2.56,-0.41,0.12,-0.52,1105.73,1447.4,1,10,1
1.24,8.72,2.71,-0.0,0.33,0.16,683.45,765.76,0,11,1
0.87,8.61,2.78,-0.09,0.31,-0.0,805.39,907.1,0,11,1
0.34,9.18,3.42,-0.05,0.28,-0.07,607.51,678.29,0,11,1
0.86,9.39,2.97,-0.02,0.25,0.1,617.92,701.51,0,11,1
1.02,8.63,2.58,-0.12,0.18,0.04,612.49,689.03,0,11,1
1.2,8.66,2.98,-0.13,0.1,0.01,572.07,647.4,0,11,1
0.31,9.78,3.61,0.03,0.04,0.09,591.01,681.76,0,11,1
1.15,9.31,2.83,-0.06,-0.13,0.33,658.4,731.22,0,11,1
1.49,8.95,3.01,-0.14,-0.25,0.19,688.55,776.0,0,11,1
1.78,9.06,2.73,-0.32,-0.32,0.01,773.95,886.79,0,11,1
1.4,9.07,3.17,-0.5,-0.41,-0.05,961.38,1092.37,0,11,1
1.5,8.87,3.49,-0.48,-0.47,-0.03,921.42,1050.57,0,11,1
2.07,8.27,3.32,-0.35,-0.23,0.07,996.16,1129.95,0,11,1
2.02,8.02,4.04,-0.15,0.05,0.05,975.44,1135.77,0,11,1
1.78,8.05,4.52,-0.18,0.15,-0.02,878.79,991.38,0,11,1
1.73,8.24,4.67,-0.14,0.11,-0.07,994.83,1142.44,0,11,1
1.58,8.41,4.46,-0.16,0.03,-0.1,1143.38,1349.07,0,11,1
1.54,8.33,4.37,-0.15,-0.0,-0.04,1130.48,1332.61,0,11,1
1.66,8.27,4.12,-0.15,0.03,-0.03,1130.38,1317.15,0,11,1
1.03,-2.14,9.33,-0.05,0.05,0.08,819.93,1103.55,0,0,1
1.3,-1.66,8.89,-0.06,0.06,0.09,759.12,985.55,0,0,1
0.88,-1.86,9.19,0.01,0.16,0.01,729.79,928.93,0,0,1
0.86,-1.92,9.16,0.03,0.2,-0.03,642.58,752.25,0,0,1
1.0,-1.54,8.84,0.0,0.18,-0.04,602.92,692.42,0,0,1
0.64,-1.38,8.93,-0.04,0.1,-0.02,584.34,651.39,0,0,1
-0.03,-1.56,9.72,0.12,0.71,0.02,504.89,557.73,0,0,1
-1.72,-0.83,9.65,0.57,1.19,0.29,461.65,500.91,0,0,1
-1.87,-0.19,8.92,0.8,1.17,0.42,406.04,450.07,0,0,1
-3.29,0.77,8.56,0.8,1.48,0.62,421.12,514.89,0,0,1
-4.71,1.45,8.4,0.75,1.05,0.82,397.94,478.07,0,0,1
-5.51,2.78,7.29,0.8,1.74,1.0,427.94,490.0,0,0,1
-5.7,4.38,5.26,0.61,2.04,1.45,410.25,491.42,0,0,1
-7.59,7.26,3.81,0.51,2.09,1.95,386.93,462.96,0,0,1
-5.01,11.69,2.28,0.29,1.06,2.32,562.07,765.44,0,0,1
-3.38,13.22,2.19,0.18,-0.19,2.34,1084.88,1535.46,1,0,1
-2.61,9.24,2.52,0.32,0.14,0.41,1132.42,1471.69,1,0,1
-6.26,5.87,0.66,0.74,-0.43,-0.79,817.17,983.95,0,1,1
-1.65,2.81,1.61,0.33,0.49,-1.39,710.4,798.32,0,1,1
-4.13,4.86,1.84,-0.37,-0.65,-0.83,936.34,1233.38,0,1,1
-3.21,4.39,2.87,-0.59,0.35,0.97,802.09,896.06,0,1,1
-2.93,4.85,1.99,-0.7,0.32,1.67,980.06,1274.45,0,1,1
-2.76,6.1,3.32,-0.67,0.32,0.71,718.16,779.05,0,1,1
-2.43,9.81,1.72,-0.14,0.14,-0.65,692.24,803.56,0,1,1
-3.63,9.71,1.18,-0.1,0.88,-2.04,802.72,1026.66,0,1,1
-8.56,11.51,2.93,0.55,-0.03,-2.18,681.33,772.02,0,1,1
-11.16,11.87,3.07,1.05,0.14,-0.64,504.74,556.35,0,1,1
-6.34,9.59,1.49,0.03,-0.03,0.71,440.26,523.01,0,1,1
-5.07,8.85,0.85,-0.4,-0.21,0.84,400.22,428.9,0,1,1
-5.83,12.04,1.71,-0.5,-0.31,1.44,423.87,595.12,0,1,1
-6.02,11.99,3.51,-0.54,-0.6,1.36,420.29,543.92,0,1,1
-6.02,11.99,3.51,-0.54,-0.6,1.36,352.2,408.33,0,1,1
-3.72,9.05,2.65,0.03,0.6,0.33,414.71,544.67,0,1,1
-3.47,5.34,2.52,0.34,-1.18,-0.68,381.02,450.37,0,1,1
-3.14,4.43,1.95,0.5,-0.02,-1.21,358.41,397.03,0,1,1
-4.29,3.66,2.6,-0.09,0.04,-1.07,311.0,336.25,0,1,1
-3.39,4.35,2.96,-0.5,-0.15,0.26,414.29,643.94,0,1,1
-3.3,2.73,3.93,-0.43,0.9,1.55,738.66,1063.13,0,1,1
-2.49,6.43,2.58,-0.43,0.01,1.52,478.61,569.66,0,1,1
-4.23,6.53,4.33,-0.3,0.11,0.33,487.1,605.6,0,1,1
-3.29,8.73,2.93,0.01,-0.14,-0.48,473.03,533.16,0,1,1
-3.37,9.84,1.8,0.39,0.22,-1.77,377.29,416.37,0,1,1
-5.68,11.91,0.98,0.98,-0.64,-1.59,317.45,347.41,0,1,1
-5.94,12.58,0.67,0.23,-0.08,-0.19,351.95,444.41,0,1,1
-5.25,8.4,1.98,-0.57,-0.49,0.41,421.8,563.57,0,1,1
-5.94,7.57,1.53,-0.5,0.15,0.46,343.38,375.91,0,1,1
-5.29,11.14,2.54,-0.55,-0.4,0.99,502.29,678.5,0,1,1
-5.2,12.4,3.05,-0.66,-1.46,1.67,495.92,665.94,0,1,1
-1.55,10.86,4.72,-0.37,-0.94,0.95,501.89,699.17,0,1,1
1.99,10.18,2.49,-0.36,-2.74,-0.16,515.11,666.32,0,1,1
-0.1,3.97,5.22,-0.71,-1.21,-1.95,474.04,520.04,0,1,1
-2.2,-0.96,6.16,-0.81,-2.42,-1.59,567.75,744.6,0,1,1
0.4,5.42,4.85,-0.15,0.83,-0.22,539.62,662.44,0,1,1
0.01,3.26,5.51,0.11,0.75,0.72,593.74,774.37,0,1,1
-2.24,2.61,5.7,0.69,2.84,1.58,522.59,641.06,0,1,1
-0.06,6.59,4.15,0.59,1.59,1.42,556.49,628.4,0,1,1
-2.79,11.45,1.3,0.19,2.05,0.14,685.26,908.49,0,1,1
-3.06,8.9,2.24,0.18,0.84,-0.52,589.65,654.63,0,1,1
-3.98,11.12,1.45,0.88,0.89,-1.22,878.01,1153.53,0,1,1
-5.39,12.25,-0.88,1.11,0.38,-0.7,493.29,555.39,0,1,1
-3.1,11.78,-0.65,0.04,-0.68,0.11,395.85,499.78,0,1,1
-5.12,8.69,-0.41,-0.58,-0.17,0.34,564.19,669.41,0,1,1
-3.96,7.62,-0.07,-0.47,-0.24,0.36,512.91,597.67,0,1,1
-4.21,10.23,0.57,-0.29,-0.15,0.41,565.73,697.12,0,1,1
-4.26,13.76,1.35,-1.06,-1.47,1.13,626.13,824.5,0,1,1
-2.11,11.64,2.65,-1.12,-2.34,1.22,604.68,796.71,0,1,1
-0.02,10.05,3.02,-0.76,-2.42,0.57,561.87,676.88,0,1,1
2.29,6.09,4.04,-1.04,-1.78,-0.47,921.86,1256.66,0,1,1
2.01,3.31,4.8,-0.71,-0.91,-1.42,774.55,948.52,0,1,1
-0.43,2.8,6.78,-0.76,-0.11,-1.56,680.64,813.36,0,1,1
2.21,5.05,4.53,-0.31,-0.21,-0.19,661.97,760.68,0,1,1
0.72,4.5,5.42,0.11,0.97,0.8,876.14,1227.63,0,1,1
0.3,2.59,6.23,0.82,2.29,1.57,574.86,648.47,0,1,1
1.48,6.03,4.31,1.03,2.1,1.57,522.24,583.89,0,1,1
-0.88,8.09,3.29,0.54,3.14,0.16,988.79,1369.9,0,1,1
-2.79,9.25,1.33,0.61,1.71,-0.6,962.48,1214.99,0,1,1
-4.43,11.53,0.37,0.18,0.06,-1.55,664.6,760.07,0,1,1
-6.11,11.71,0.74,1.11,-0.37,-0.99,590.51,691.49,0,1,1
-5.52,12.54,0.74,0.49,-0.61,0.1,568.38,611.58,0,1,1
-4.5,9.12,-0.56,-0.36,-0.45,0.25,571.53,777.53,0,1,1
-5.52,7.51,0.22,-0.42,0.11,0.2,483.44,539.78,0,1,1
-4.46,8.2,1.1,-0.31,-0.23,0.19,629.25,946.06,0,1,1
-4.7,9.9,2.03,-0.31,-0.62,0.28,1780.1,2161.91,1,1,1
-3.86,13.2,2.02,-0.67,-1.86,0.96,788.61,877.13,0,2,1
-2.47,11.23,3.18,-0.48,-1.82,1.03,785.73,1014.88,0,2,1
-1.93,10.26,3.48,-0.32,-1.63,0.42,867.86,1089.84,0,2,1
-1.22,7.13,3.35,-0.7,-2.7,-0.53,737.63,859.98,0,2,1
0.49,5.38,3.65,-0.99,-1.4,-1.09,635.03,737.49,0,2,1
0.74,4.29,5.43,-0.81,-0.03,-1.38,618.92,757.27,0,2,1
-0.36,5.74,6.01,-0.5,-0.69,-0.64,545.43,676.41,0,2,1
-1.22,5.89,6.71,-0.15,0.48,0.21,418.34,483.06,0,2,1
1.33,5.49,5.21,0.47,1.94,1.01,413.47,470.93,0,2,1
-1.0,4.35,4.71,0.41,1.62,1.56,555.52,791.57,0,2,1
-0.31,7.54,3.45,0.5,2.44,1.28,709.9,1048.88,0,2,1
-2.06,8.72,2.49,-0.15,2.6,0.04,852.83,1183.95,0,2,1
-3.37,7.35,3.06,0.29,1.22,-0.3,638.05,717.95,0,2,1
-2.19,10.88,0.74,1.03,1.13,-1.05,645.04,704.9,0,2,1
-6.3,13.13,0.17,0.97,-0.03,-1.06,577.47,717.53,0,2,1
-5.72,12.11,-0.12,0.16,-0.12,-0.09,433.44,475.3,0,2,1
-3.88,8.44,-0.95,-0.39,-0.47,0.23,345.93,393.22,0,2,1
-5.2,7.28,0.12,-0.39,0.03,0.21,632.99,853.49,0,2,1
-4.64,8.29,0.88,-0.12,0.01,0.18,719.17,942.44,0,2,1
-6.9,13.17,0.42,-0.23,-0.44,0.79,541.28,620.25,0,2,1
-0.6,13.66,0.95,-1.01,-3.11,2.01,560.46,722.53,0,2,1
-0.34,10.64,2.76,-0.54,-2.19,0.67,832.12,1200.16,0,2,1
0.78,6.88,2.83,-0.93,-2.25,-0.72,726.45,999.38,0,2,1
0.95,4.5,3.03,-0.94,-1.55,-1.24,659.03,742.71,0,2,1
0.51,3.07,5.84,-0.84,-0.64,-1.12,658.54,702.94,0,2,1
1.27,4.18,5.94,-0.58,-0.26,-0.49,663.65,982.51,0,2,1
1.54,4.1,5.72,0.23,1.02,0.35,610.18,752.52,0,2,1
-1.88,2.44,5.86,0.66,2.74,1.48,708.66,927.91,0,2,1
-0.45,5.22,5.18,0.87,0.96,1.83,763.32,1037.87,0,2,1
0.49,9.84,2.45,0.46,2.91,0.35,751.92,930.73,0,2,1
-2.11,10.82,1.58,0.91,2.53,-0.2,729.01,833.75,0,2,1
-3.76,11.51,0.91,0.79,0.71,-0.78,673.98,753.68,0,2,1
-5.09,10.26,0.42,0.94,0.45,-1.4,554.23,649.83,0,2,1
-4.1,13.19,-0.56,0.35,0.37,-0.63,549.77,587.75,0,2,1
-3.94,9.84,0.11,-0.31,-0.98,0.25,334.47,393.42,0,2,1
-5.33,7.78,0.47,-0.36,0.14,0.28,335.79,407.17,0,2,1
-3.87,7.98,0.59,-0.24,-0.15,0.14,996.25,1377.54,0,2,1
-4.13,9.55,1.17,-0.22,0.04,-0.0,547.33,640.32,0,2,1
-5.35,13.51,1.69,-0.59,-2.13,0.77,498.79,542.84,0,2,1
-2.76,13.62,2.37,-0.6,-2.12,1.14,512.75,727.91,0,2,1
-2.03,11.23,1.73,-0.48,-2.14,0.47,924.38,1353.75,0,2,1
-4.05,6.74,4.56,-0.88,-2.64,-0.31,647.7,780.26,0,2,1
1.6,4.08,3.18,-0.65,-1.06,-1.35,619.17,748.01,0,2,1
0.47,3.55,4.24,-0.88,0.13,-1.59,755.44,969.83,0,2,1
0.08,4.68,5.4,-0.33,-0.46,-0.01,539.78,585.47,0,2,1
2.6,3.92,5.46,0.4,0.62,1.03,520.92,673.0,0,2,1
0.11,6.68,4.1,0.89,3.96,1.53,494.59,599.91,0,2,1
-2.08,6.11,4.47,0.3,2.6,1.17,446.75,508.74,0,2,1
-1.63,10.34,0.65,0.57,2.7,0.45,605.28,769.06,0,2,1
-1.67,8.81,1.1,0.16,1.33,-0.4,1432.09,1782.5,1,2,1
-1.67,8.81,1.1,0.16,1.33,-0.4,747.84,897.9,0,3,1
-3.69,10.1,-0.43,0.75,-0.78,-0.71,769.27,878.44,0,3,1
-4.59,11.9,-0.48,0.75,-0.83,-1.13,693.02,757.61,0,3,1
-4.95,13.52,0.41,0.73,0.35,-0.37,486.35,585.2,0,3,1
-6.49,10.19,-0.54,-0.35,-0.01,0.32,525.39,635.0,0,3,1
-3.82,7.44,-0.16,-0.53,-0.03,0.2,1329.38,1825.14,1,3,1
-4.32,8.14,0.51,-0.23,0.08,0.07,1648.57,1907.55,1,3,1
-4.1,9.7,0.76,-0.25,-0.23,0.16,963.94,1048.32,0,4,1
-4.48,14.01,1.03,-0.62,-1.51,1.05,728.08,817.23,0,4,1
-1.57,13.19,2.11,-0.87,-2.02,1.25,860.51,1224.05,0,4,1
-2.43,10.66,1.65,-0.52,-2.09,0.7,749.81,885.0,0,4,1
0.05,7.73,3.33,-0.9,-1.99,-0.29,879.18,1065.9,0,4,1
1.31,4.72,4.13,-1.1,-1.49,-1.19,910.16,1158.96,0,4,1
0.57,2.87,5.25,-1.14,-1.03,-1.25,730.78,848.96,0,4,1
1.71,5.17,5.71,-0.34,-0.54,-0.31,570.76,643.48,0,4,1
1.18,4.0,5.11,0.49,0.95,0.82,649.55,906.69,0,4,1
-0.63,1.64,5.0,0.83,0.9,1.8,675.53,812.91,0,4,1
0.68,7.79,3.42,1.22,3.95,1.18,698.74,802.35,0,4,1
-1.69,7.55,3.94,0.31,2.62,-0.08,778.04,943.24,0,4,1
-0.04,12.28,0.34,0.96,0.72,-0.7,940.17,1210.52,0,4,1
-2.95,13.47,0.45,0.82,0.88,-1.32,1528.75,1767.79,1,4,1
-3.3,12.42,-0.48,0.5,0.17,-0.81,838.4,952.13,0,5,1
-3.79,10.6,0.21,-0.07,0.04,-0.07,1897.54,2046.39,1,5,1
-5.24,8.4,0.05,-0.36,-0.03,0.23,1592.85,1681.03,1,5,1
-3.41,8.37,0.39,-0.22,-0.09,0.35,1216.94,1404.54,1,5,1
-4.19,8.67,0.7,-0.12,0.25,0.14,984.8,1108.11,0,6,1
-3.73,9.49,1.06,-0.14,-0.13,0.27,973.88,1117.68,0,6,1
-2.1,12.7,1.33,-0.39,-0.96,0.51,800.01,905.13,0,6,1
-2.56,12.86,2.16,-0.72,-1.95,0.7,745.46,790.64,0,6,1
-3.62,11.64,3.69,-0.81,-2.55,0.52,455.89,518.72,0,6,1
-1.45,7.03,4.72,-0.97,-2.96,-0.22,782.29,1132.64,0,6,1
2.12,4.3,4.24,-0.69,-1.58,-0.87,916.55,1225.46,0,6,1
1.14,3.25,5.12,-0.41,-0.4,-0.97,647.17,745.06,0,6,1
0.13,5.01,5.68,-0.42,-0.07,-0.35,578.33,665.25,0,6,1
1.87,4.26,4.82,0.36,0.92,0.68,844.18,1206.38,0,6,1
0.52,4.01,3.83,0.89,2.49,1.42,1544.37,1859.41,1,6,1
0.65,5.52,3.37,0.62,3.56,0.94,882.65,985.9,0,7,1
-1.35,8.94,3.01,0.38,3.01,-0.21,847.92,1037.94,0,7,1
-6.21,10.75,1.28,0.13,3.05,-0.74,1573.19,1834.26,1,7,1
-5.15,11.75,2.73,1.18,1.26,-0.76,1587.95,1697.34,1,7,1
-2.08,13.55,-1.2,1.22,0.37,-0.54,1290.03,1453.77,1,7,1
-3.85,11.43,-0.51,-0.23,-0.29,-0.29,1125.19,1214.76,0,8,1
-4.28,8.66,-1.1,-0.35,0.11,0.28,718.5,814.15,0,8,1
-3.49,7.82,-0.06,-0.3,-0.0,0.2,603.64,693.45,0,8,1
-4.35,8.52,0.37,-0.1,-0.07,0.05,604.94,726.85,0,8,1
-4.24,8.9,0.65,-0.16,-0.13,0.06,1395.68,1725.59,1,8,1
-5.56,12.25,1.73,-0.14,-1.1,0.62,1001.89,1237.9,0,9,1
-1.37,14.85,1.54,-0.65,-2.32,1.51,806.17,984.29,0,9,1
-1.29,12.23,2.81,-0.71,-2.7,0.97,726.3,810.06,0,9,1
0.09,7.58,2.67,-0.99,-2.31,-0.58,840.66,1108.97,0,9,1
2.61,5.66,3.13,-1.15,-1.8,-0.94,917.86,1114.75,0,9,1
1.2,2.48,5.55,-0.57,-0.25,-1.0,761.68,938.03,0,9,1
2.14,3.64,3.95,-0.46,0.59,-0.69,1086.41,1499.76,1,9,1
3.28,3.58,3.93,0.14,0.45,0.44,1227.03,1561.79,1,9,1
-1.36,3.83,4.8,1.2,4.15,1.5,1255.08,1452.61,1,9,1
-1.07,7.0,2.98,0.42,2.66,1.48,1138.82,1233.44,0,10,1
-2.53,10.82,0.75,0.35,1.46,0.73,744.74,872.86,0,10,1
0.61,11.87,1.57,-0.09,0.36,-0.19,1544.97,1798.69,1,10,1
0.12,9.22,4.53,0.55,0.17,-1.12,1095.74,1282.05,0,11,1
-1.53,13.83,-0.92,0.96,0.84,-1.35,984.46,1146.57,0,11,1
-4.75,12.06,0.98,-0.53,0.53,-0.38,968.22,1015.43,0,11,1
-4.31,8.81,1.35,-0.39,0.31,0.43,687.76,729.16,0,11,1
-2.7,7.94,1.41,-0.23,0.1,0.3,766.12,1061.3,0,11,1
-3.12,8.59,1.24,-0.03,0.14,0.08,1468.02,1846.52,1,11,1
-3.07,9.55,1.68,-0.05,-0.08,0.08,974.16,1189.64,0,12,1
-2.81,13.58,1.25,-0.34,-2.02,0.55,749.87,843.1,0,12,1
-1.5,13.05,1.98,-0.75,-1.94,0.79,723.25,959.44,0,12,1
0.75,11.13,1.44,-0.82,-2.14,0.24,897.1,1302.3,0,12,1
-0.9,8.06,3.2,-0.93,-1.97,-0.69,829.0,1081.76,0,12,1
1.35,4.64,4.18,-1.35,-1.11,-1.16,900.38,1103.6,0,12,1
1.93,3.0,5.39,-0.46,-0.87,-0.86,781.63,869.0,0,12,1
-0.39,5.6,6.18,-0.14,0.05,-0.24,649.32,717.6,0,12,1
0.77,3.54,5.82,0.14,1.51,0.36,562.47,623.73,0,12,1
-1.62,2.42,5.33,0.99,3.09,1.62,743.39,1052.78,0,12,1
-1.1,7.66,3.61,0.53,2.8,1.66,972.96,1354.0,0,12,1
-3.13,6.81,4.06,-0.2,2.48,0.49,802.06,965.64,0,12,1
-2.49,9.72,2.03,0.43,1.09,-0.12,946.98,1134.24,0,12,1
-3.65,11.35,2.01,0.48,-0.23,-1.0,1080.16,1293.44,0,12,1
-4.41,12.36,1.29,0.71,0.36,-1.15,794.86,874.11,0,12,1
-4.69,11.19,0.79,0.46,0.34,-0.33,783.9,941.51,0,12,1
-5.88,9.19,0.53,-0.42,-0.27,0.14,926.65,1106.78,0,12,1
-5.27,8.03,1.16,-0.51,0.04,0.27,668.2,723.8,0,12,1
-4.36,8.16,2.23,-0.23,-0.21,0.33,1484.44,1889.63,1,12,1
-3.81,9.83,2.25,-0.19,-0.27,0.42,1681.39,1856.78,1,12,1
-2.74,12.65,2.7,-0.27,-2.07,0.79,995.32,1124.7,0,13,1
-1.99,11.26,2.72,-0.62,-2.09,0.24,815.32,914.89,0,13,1
-2.71,8.6,3.3,-1.08,-1.22,-0.25,715.47,834.51,0,13,1
-1.73,4.37,5.83,-1.2,-2.73,-0.58,735.36,879.02,0,13,1
-0.06,4.28,6.07,-0.27,-0.88,-1.1,655.1,745.69,0,13,1
-0.24,4.09,4.89,-0.31,0.3,-1.04,600.85,678.16,0,13,1
1.0,3.77,6.08,-0.22,-0.84,0.12,520.03,608.92,0,13,1
0.79,3.46,6.25,0.6,1.65,0.99,598.07,804.68,0,13,1
-0.77,4.8,6.02,1.02,2.77,1.6,828.97,1241.74,0,13,1
-2.77,6.15,4.59,0.42,2.71,1.04,762.0,1061.7,0,13,1
-2.74,8.51,2.41,0.43,1.75,0.29,814.71,1011.23,0,13,1
-3.09,10.28,1.13,0.33,0.98,-0.45,775.64,865.92,0,13,1
-3.06,11.03,2.15,0.7,-0.21,-1.0,1120.12,1438.71,1,13,1
-3.06,11.03,2.15,0.7,-0.21,-1.0,958.69,1168.83,0,14,1
-4.96,13.4,1.15,0.5,-0.11,-0.59,698.12,785.94,0,14,1
-4.55,8.32,0.36,-0.34,0.05,0.22,493.12,563.92,0,14,1
-4.25,8.12,1.55,-0.28,0.06,0.17,447.87,501.5,0,14,1
-4.25,8.12,1.55,-0.28,0.06,0.17,700.1,964.53,0,14,1
-4.03,9.33,1.43,-0.1,-0.1,0.24,919.26,1232.4,0,14,1
-2.92,10.55,1.55,-0.42,-1.87,0.51,707.98,807.43,0,14,1
-3.86,12.66,3.19,-0.65,-2.96,0.71,534.37,594.76,0,14,1
-0.5,10.95,4.01,-0.56,-1.06,0.83,894.67,1285.24,0,14,1
0.12,8.88,2.45,-0.37,-1.41,0.09,983.08,1379.05,0,14,1
0.99,6.67,3.58,-0.64,-1.32,-0.67,991.26,1291.16,0,14,1
1.64,3.4,5.51,-1.14,-0.82,-1.3,769.24,857.59,0,14,1
0.37,3.46,6.66,-0.92,-0.25,-0.95,662.78,750.74,0,14,1
1.24,5.44,6.17,-0.31,0.19,-0.12,625.64,664.08,0,14,1
2.34,5.15,6.25,0.12,0.83,0.26,782.58,1061.25,0,14,1
-1.77,4.29,6.04,0.57,3.2,0.93,852.19,1219.65,0,14,1
-1.7,4.69,5.32,0.47,2.0,1.41,764.46,1003.91,0,14,1
-1.95,6.31,3.69,0.38,2.68,0.73,705.79,858.71,0,14,1
-0.93,9.43,1.3,0.46,2.93,0.09,689.1,776.86,0,14,1
-3.81,10.79,0.08,0.48,1.94,-0.51,592.41,705.15,0,14,1
-4.73,11.03,0.15,0.51,-0.17,-0.51,570.23,646.11,0,14,1
-3.1,11.11,-0.33,0.25,-0.32,-0.36,527.44,589.25,0,14,1
-2.73,9.96,0.15,-0.04,-0.45,-0.03,446.59,482.16,0,14,1
-3.46,8.99,0.54,-0.19,-0.06,0.07,341.75,395.47,0,14,1
-4.09,8.4,0.38,-0.23,-0.16,0.15,495.42,659.12,0,14,1
-4.49,8.16,0.85,-0.11,-0.26,0.18,453.12,547.69,0,14,1
-4.25,8.91,1.16,-0.08,-0.31,0.08,364.01,405.06,0,14,1
-2.83,12.69,1.47,-0.27,-2.51,0.3,410.51,503.97,0,14,1
-2.59,13.95,3.28,-0.8,-3.3,0.75,562.07,806.04,0,14,1
-0.89,9.38,4.37,-0.83,-3.22,0.3,623.0,845.97,0,14,1
-0.78,5.16,5.2,-0.81,-3.16,-0.25,538.63,674.93,0,14,1
0.75,4.88,5.01,-0.72,-0.67,-0.95,547.39,670.96,0,14,1
0.77,3.55,5.6,-0.68,-0.13,-0.95,513.21,580.41,0,14,1
0.75,4.47,6.4,-0.24,-0.33,-0.14,559.49,650.18,0,14,1
1.96,3.76,5.99,0.22,0.56,0.52,549.42,674.19,0,14,1
1.6,3.83,5.47,0.73,0.38,1.21,579.05,739.04,0,14,1
2.29,5.06,5.44,0.53,1.51,0.98,790.34,1100.95,0,14,1
2.98,7.44,3.64,0.57,1.93,0.3,752.06,1007.38,0,14,1
-1.19,8.59,2.19,0.43,5.24,-0.65,660.79,729.16,0,14,1
-5.13,10.16,0.89,0.79,3.41,-0.79,554.33,620.67,0,14,1
-5.97,11.84,0.44,0.71,0.85,-0.81,445.93,506.62,0,14,1
-5.49,10.36,0.42,0.33,0.27,-0.16,415.9,443.18,0,14,1
-4.69,8.62,-0.3,-0.07,-0.14,0.19,277.0,308.93,0,14,1
-4.96,7.89,-0.53,-0.29,-0.39,0.26,506.52,673.57,0,14,1
-4.88,7.72,0.19,-0.18,-0.19,0.14,535.47,692.53,0,14,1
-5.46,9.92,0.45,-0.03,-0.43,0.35,395.68,443.66,0,14,1
-4.06,14.87,1.52,-0.85,-4.14,1.13,449.73,566.7,0,14,1
-0.97,11.74,3.2,-0.72,-2.79,0.81,719.21,986.43,0,14,1
2.73,7.02,2.65,-1.01,-3.32,0.07,621.14,776.17,0,14,1
-0.08,4.93,4.33,-0.85,-1.48,-0.81,575.69,708.84,0,14,1
1.0,3.73,4.7,-0.97,-0.29,-1.1,533.05,616.68,0,14,1
0.94,3.96,5.68,-0.86,-0.33,-0.6,485.1,553.81,0,14,1
1.45,4.71,7.19,-0.07,0.45,0.15,468.14,560.65,0,14,1
0.58,2.74,6.73,0.63,1.2,0.61,445.06,555.66,0,14,1
-1.62,5.27,5.49,0.94,0.6,1.38,474.05,605.69,0,14,1
1.0,6.89,4.22,0.58,4.12,0.7,666.27,948.05,0,14,1
-1.38,6.93,3.96,0.75,3.74,0.16,624.92,764.12,0,14,1
-3.24,10.66,1.11,0.62,2.03,-0.24,705.43,809.37,0,14,1
-5.23,10.32,0.23,0.93,1.41,-0.89,725.88,858.85,0,14,1
-4.82,12.48,-0.57,0.68,-0.6,-0.6,584.49,632.46,0,14,1
-4.75,11.19,-0.75,-0.04,-0.29,0.15,423.27,456.72,0,14,1
-3.86,8.16,-0.7,-0.44,-0.17,0.28,412.59,503.64,0,14,1
-3.72,8.13,-0.0,-0.39,-0.22,0.19,541.0,694.6,0,14,1
-4.37,9.5,0.34,-0.3,-0.69,0.28,433.68,499.8,0,14,1
-4.93,12.38,0.78,-0.45,-0.89,0.64,485.38,635.47,0,14,1
-1.41,12.58,1.93,-1.09,-4.32,1.02,810.16,1202.69,0,14,1
0.02,9.69,3.36,-1.04,-2.65,0.32,725.26,946.14,0,14,1
0.17,6.97,5.44,-1.23,-2.21,-0.54,658.89,800.1,0,14,1
1.87,2.08,6.01,-1.19,-0.95,-1.35,622.77,706.05,0,14,1
1.51,2.83,5.66,-1.03,-0.46,-0.93,517.85,608.6,0,14,1
2.39,3.17,7.3,-0.34,0.02,-0.25,614.34,767.37,0,14,1
2.47,4.52,7.5,0.44,0.87,0.46,725.53,976.96,0,14,1
1.46,3.89,6.33,1.13,2.15,1.13,695.14,858.92,0,14,1
-0.52,4.56,5.32,1.55,3.46,1.37,722.66,939.73,0,14,1
-1.54,9.54,1.71,1.07,2.9,0.9,864.4,1188.15,0,14,1
-2.13,9.59,0.96,0.48,1.27,0.04,1394.2,1679.84,1,14,1
-2.62,9.81,0.51,0.06,-0.28,-0.72,1703.05,1767.76,1,14,1
-2.29,12.42,-0.04,0.48,0.86,-1.17,1351.31,1484.16,1,14,1
-3.91,11.86,2.19,0.06,-0.25,-0.56,1488.93,1507.5,1,14,1
-5.08,9.71,1.27,-0.06,-0.12,0.23,863.02,889.91,0,15,1
-4.05,8.02,0.73,-0.2,-0.08,0.39,1172.88,1603.11,1,15,1
-3.41,8.09,1.31,-0.11,0.26,0.19,1374.29,1692.92,1,15,1
-3.52,9.98,1.29,-0.18,0.05,0.23,971.04,1169.67,0,16,1
-4.35,12.06,0.8,-0.37,-0.37,0.84,759.94,839.57,0,16,1
-1.93,13.41,2.06,-0.84,-0.41,0.95,1063.66,1390.1,1,16,1
0.18,10.95,2.58,-0.81,-1.51,0.15,1038.56,1317.14,0,17,1
-2.36,6.65,5.27,-0.95,-1.87,-0.89,751.6,886.1,0,17,1
3.27,2.45,4.32,-0.63,-1.81,-1.4,812.2,939.04,0,17,1
-2.15,1.91,5.69,-0.56,-0.4,-1.51,717.23,793.53,0,17,1
-0.6,4.25,6.11,-0.01,0.65,-0.19,621.07,697.46,0,17,1
-0.74,3.82,6.82,0.11,0.18,0.58,620.32,768.46,0,17,1
-3.01,5.1,6.89,0.56,1.18,1.26,523.75,597.81,0,17,1
-1.98,4.23,5.88,0.66,1.59,1.34,629.8,792.98,0,17,1
-0.39,8.79,2.48,1.06,1.65,0.84,836.26,1201.0,0,17,1
0.42,10.48,1.15,-0.03,1.54,-0.16,844.54,1134.35,0,17,1
-3.3,9.6,1.84,0.32,1.05,-0.9,864.56,1025.03,0,17,1
-1.98,12.54,1.55,0.05,0.22,-1.12,839.87,976.44,0,17,1
-4.83,11.07,3.32,-0.01,0.61,-0.53,646.32,733.15,0,17,1
-4.99,9.08,2.55,-0.03,-0.17,0.37,594.38,674.23,0,17,1
-2.9,8.0,2.09,-0.02,0.41,0.33,489.44,577.33,0,17,1
-2.94,7.97,1.91,-0.11,0.05,0.06,620.77,719.97,0,17,1
-4.11,8.23,2.02,-0.06,0.19,-0.02,613.03,754.15,0,17,1
-4.01,9.61,2.16,-0.05,-0.19,0.11,580.67,683.45,0,17,1
-2.55,13.29,1.97,-0.47,-0.56,0.81,567.32,689.48,0,17,1
-3.27,11.81,1.66,-1.13,-2.04,0.78,637.29,887.52,0,17,1
-1.02,10.79,4.77,-0.78,-2.39,0.54,545.34,714.67,0,17,1
-1.02,10.79,4.77,-0.78,-2.39,0.54,572.96,716.69,0,17,1
0.21,7.81,4.04,-0.73,-2.83,-0.55,612.87,710.58,0,17,1
-0.59,2.37,5.91,-0.77,-1.23,-1.4,574.57,663.03,0,17,1
1.23,2.75,6.39,-0.89,-1.1,-1.07,536.66,622.13,0,17,1
1.35,4.33,6.37,-0.52,-0.28,-0.72,608.39,776.31,0,17,1
0.22,4.45,6.74,0.15,0.29,0.38,602.63,785.65,0,17,1
1.14,3.65,6.98,0.71,1.81,0.79,598.62,729.25,0,17,1
-3.09,2.47,6.12,0.68,2.88,1.34,737.15,1038.51,0,17,1
-1.87,6.44,3.11,0.43,1.84,1.08,767.94,1009.52,0,17,1
-2.18,9.2,2.94,0.02,2.88,0.08,850.47,1067.51,0,17,1
-3.78,9.9,4.83,0.38,0.52,-0.23,1454.43,1769.04,1,17,1
-2.6,12.25,2.21,0.46,0.07,-0.3,1062.38,1230.94,0,18,1
-2.53,10.0,2.24,0.2,0.3,-0.13,1047.04,1182.43,0,18,1
-2.19,9.53,2.4,0.14,-0.54,0.07,788.41,890.25,0,18,1
-2.59,9.45,2.2,0.03,0.03,0.08,896.52,1096.92,0,18,1
-2.53,8.73,2.08,-0.07,0.07,0.18,801.59,951.0,0,18,1
-2.45,8.61,2.6,-0.11,-0.12,0.16,817.76,1029.94,0,18,1
-2.39,9.53,2.85,-0.09,-0.18,0.04,987.59,1296.41,0,18,1
-2.25,11.97,2.99,-0.22,-0.84,0.38,975.81,1141.63,0,18,1
-2.23,13.48,3.54,-0.55,-1.89,0.91,854.89,964.1,0,18,1
-0.91,11.19,3.45,-0.57,-2.21,0.49,791.77,1000.14,0,18,1
0.18,6.81,4.62,-1.02,-2.39,-0.54,905.78,1074.34,0,18,1
1.48,4.2,4.38,-1.13,-1.33,-1.29,810.64,961.28,0,18,1
1.73,2.94,4.68,-1.11,-0.14,-1.38,624.1,709.82,0,18,1
2.49,3.9,5.83,-0.18,0.46,-0.02,526.57,624.61,0,18,1
2.42,4.0,6.81,0.7,1.57,0.85,750.32,1061.47,0,18,1
-1.25,5.21,4.99,1.15,4.63,1.26,678.07,886.94,0,18,1
-2.47,7.78,3.36,0.73,2.49,1.06,868.23,1266.66,0,18,1
-2.15,9.24,0.5,0.29,1.58,0.26,820.74,955.8,0,18,1
-3.72,8.84,1.27,0.07,0.42,-0.38,859.55,996.84,0,18,1
-1.41,11.05,-0.6,0.47,0.46,-0.97,715.65,826.58,0,18,1
-3.74,11.97,1.65,0.06,-0.42,-1.14,672.14,730.78,0,18,1
-4.23,11.37,2.03,0.24,0.17,-0.29,499.18,535.4,0,18,1
-4.7,9.1,0.34,-0.25,-0.07,0.34,417.85,485.58,0,18,1
-4.15,7.8,1.06,-0.36,-0.17,0.29,729.68,1063.19,0,18,1
-4.35,7.89,1.93,-0.18,-0.11,0.19,675.69,882.86,0,18,1
-4.18,8.62,2.05,-0.13,-0.16,0.13,494.92,558.2,0,18,1
-3.97,11.9,2.19,-0.42,-2.01,0.61,470.67,522.1,0,18,1
-2.75,13.21,2.83,-0.55,-2.41,1.32,603.61,831.54,0,18,1
-1.81,11.9,3.82,-0.59,-2.29,1.03,852.24,1140.14,0,18,1
3.41,8.45,2.63,-0.65,-1.61,-0.35,646.63,753.74,0,18,1
1.7,2.89,4.87,-0.71,-1.24,-1.36,668.78,802.02,0,18,1
1.15,3.52,5.19,-0.96,0.14,-1.26,562.95,629.22,0,18,1
2.63,3.54,6.51,-0.73,-0.81,-0.72,546.18,621.04,0,18,1
2.19,3.52,6.61,0.25,0.67,0.29,463.56,534.9,0,18,1
-0.74,2.59,5.99,1.15,3.33,1.33,524.81,654.12,0,18,1
-0.46,5.73,5.22,1.12,1.2,1.56,805.33,1112.5,0,18,1
-2.06,8.31,2.8,0.77,3.19,0.58,1040.7,1354.98,0,18,1
-1.68,9.51,1.79,0.49,1.16,0.13,764.04,892.6,0,18,1
-1.59,10.88,1.42,0.04,0.56,-0.31,789.56,917.04,0,18,1
-1.88,10.71,1.41,0.5,0.02,-0.3,878.57,1027.28,0,18,1
-0.52,11.69,1.25,0.37,0.14,-0.34,633.23,717.78,0,18,1
-1.93,10.87,1.28,0.04,-0.1,-0.14,577.98,687.27,0,18,1
-2.68,9.05,1.07,-0.22,-0.05,0.18,649.33,780.01,0,18,1
-2.32,8.8,1.43,-0.19,0.01,0.2,610.06,709.24,0,18,1
-1.53,9.42,1.29,-0.09,0.08,0.06,583.84,669.5,0,18,1
-1.46,11.69,1.28,-0.3,-0.98,0.19,639.02,810.78,0,18,1
-0.41,13.0,1.24,-0.62,-1.25,0.35,674.61,860.84,0,18,1
-0.67,12.5,0.51,-0.93,-1.42,0.25,701.68,951.25,0,18,1
-1.09,9.49,2.25,-1.14,-2.12,0.0,609.6,744.85,0,18,1
1.05,7.42,1.64,-1.22,-1.42,-0.53,1093.54,1447.32,1,18,1
1.69,2.98,6.63,-1.26,-1.23,-1.12,674.94,780.75,0,19,1
0.63,2.96,7.63,-0.59,-0.33,-1.22,598.17,696.49,0,19,1
0.81,3.96,5.96,-0.08,0.29,-0.3,552.42,615.86,0,19,1
1.64,3.68,5.53,0.56,2.53,0.62,510.32,577.94,0,19,1
-2.22,5.68,5.37,1.22,3.45,1.71,625.24,880.52,0,19,1
-2.41,6.19,3.98,0.42,2.16,1.39,767.36,1100.47,0,19,1
-2.63,9.06,2.13,0.76,1.24,0.84,913.97,1265.97,0,19,1
-1.0,11.55,0.12,-0.09,1.28,-0.12,689.99,766.7,0,19,1
-1.35,10.92,1.53,0.17,1.22,-0.53,567.35,641.63,0,19,1
-1.82,11.91,2.66,0.5,-0.1,-0.46,662.48,775.65,0,19,1
-3.43,10.83,1.42,0.47,-0.03,-0.33,496.27,569.05,0,19,1
-3.71,10.11,0.43,-0.02,0.32,-0.03,470.47,548.79,0,19,1
-4.05,9.21,1.59,-0.23,-0.2,0.17,810.07,1117.48,0,19,1
-4.06,9.0,1.36,-0.11,0.16,0.21,828.8,1082.52,0,19,1
-3.11,9.19,1.46,-0.17,-0.01,0.13,692.96,763.48,0,19,1
-1.85,10.48,1.84,-0.32,-0.77,0.2,641.67,698.58,0,19,1
-1.44,13.04,2.33,-0.44,-1.11,0.36,749.02,1028.58,0,19,1
-1.61,12.32,1.71,-0.87,-2.27,0.35,844.21,1195.59,0,19,1
0.14,9.47,1.02,-1.08,-2.3,0.04,786.1,938.53,0,19,1
0.91,7.53,3.36,-1.23,-2.0,-0.45,765.27,883.77,0,19,1
1.66,3.7,4.92,-1.29,-1.05,-1.3,789.71,914.86,0,19,1
1.86,2.98,6.51,-0.65,-0.42,-1.01,619.33,705.32,0,19,1
1.84,4.26,5.86,-0.31,-0.3,-0.32,552.67,616.38,0,19,1
1.95,4.06,6.53,-0.02,1.05,0.49,539.69,589.33,0,19,1
0.01,3.16,6.94,1.2,3.99,1.31,527.26,655.95,0,19,1
-0.44,7.42,5.37,1.2,2.09,1.8,674.53,946.84,0,19,1
-1.12,7.41,3.97,0.89,1.8,0.92,1192.07,1563.1,1,19,1
-1.09,9.34,2.4,0.7,0.77,0.25,684.55,776.45,0,20,1
0.74,11.71,-0.24,0.24,0.83,-0.53,634.46,733.37,0,20,1
-0.68,10.72,1.61,0.23,-0.29,-0.85,826.44,1021.08,0,20,1
-1.73,12.08,2.18,0.18,-0.05,-0.63,747.37,896.92,0,20,1
-2.32,11.01,1.76,0.02,0.02,0.11,578.39,680.75,0,20,1
-2.32,11.01,1.76,0.02,0.02,0.11,614.39,787.5,0,20,1
-2.43,8.34,1.97,-0.14,0.19,0.05,1037.82,1353.77,0,20,1
-2.43,8.94,2.04,-0.09,0.04,0.02,1006.78,1293.07,0,20,1
-2.41,8.92,2.17,-0.03,-0.02,0.03,736.43,835.08,0,20,1
-2.34,9.83,1.84,-0.04,-0.12,0.04,701.9,789.56,0,20,1
-1.52,13.05,1.72,-0.29,-1.08,0.37,651.81,789.63,0,20,1
1.21,12.78,1.51,-0.95,-2.22,0.74,800.19,1105.13,0,20,1
0.61,10.05,2.07,-1.08,-1.65,0.19,704.15,859.1,0,20,1
0.61,10.05,2.07,-1.08,-1.65,0.19,715.51,919.27,0,20,1
1.61,7.36,2.9,-0.99,-2.24,-0.53,645.24,769.7,0,20,1
0.15,2.38,5.63,-0.77,-1.07,-1.09,636.91,717.16,0,20,1
2.82,4.41,5.48,-0.66,-0.92,-0.6,551.25,650.5,0,20,1
3.2,4.21,5.44,-0.48,-0.49,-0.44,537.85,657.07,0,20,1
1.35,3.6,6.65,0.16,0.93,-0.01,631.71,803.99,0,20,1
-0.12,3.89,6.14,1.08,2.07,1.1,821.82,1232.67,0,20,1
0.65,6.68,4.03,0.89,3.59,1.14,899.83,1236.14,0,20,1
-0.15,7.17,3.79,0.71,1.74,0.65,758.33,879.87,0,20,1
-0.07,12.37,-0.03,0.46,1.5,-0.16,813.04,889.16,0,20,1
-2.76,9.94,2.71,-0.16,0.59,-0.71,730.7,808.2,0,20,1
-3.18,9.21,1.12,1.11,0.42,-0.76,581.32,664.96,0,20,1
-5.53,12.72,0.15,0.57,0.17,-0.47,526.6,589.27,0,20,1
-3.79,11.29,0.91,-0.22,0.06,0.11,447.59,487.84,0,20,1
-3.7,8.45,0.62,-0.38,-0.23,0.28,707.69,1010.76,0,20,1
-4.0,7.79,1.23,-0.24,-0.11,0.13,901.82,1305.62,0,20,1
-3.43,8.36,1.42,-0.03,0.05,0.02,690.72,783.17,0,20,1
-4.0,8.87,1.67,-0.04,-0.1,0.06,553.58,606.19,0,20,1
-4.92,12.17,1.4,-0.06,-0.93,0.42,550.16,672.56,0,20,1
-2.03,12.35,1.6,-0.75,-1.82,1.07,753.96,1126.56,0,20,1
-0.73,11.17,2.25,-0.78,-1.75,0.72,828.61,1096.67,0,20,1
-0.18,8.59,3.15,-0.87,-2.35,0.12,819.07,1066.82,0,20,1
-0.59,7.28,4.46,-0.79,-1.41,-0.44,886.07,1166.71,0,20,1
1.16,5.49,5.06,-0.79,-0.52,-0.88,784.24,915.25,0,20,1
2.16,5.36,4.56,-0.92,-0.97,-0.95,666.99,734.42,0,20,1
1.55,3.35,6.48,-0.84,-0.51,-0.57,556.75,624.06,0,20,1
2.74,4.61,6.52,-0.02,0.02,0.33,515.89,567.59,0,20,1
2.74,4.45,6.89,0.47,0.72,0.66,571.61,761.83,0,20,1
2.0,4.03,6.26,0.96,2.62,0.92,823.18,1179.54,0,20,1
3.42,6.59,3.79,0.71,1.7,1.07,1095.49,1548.77,1,20,1
0.74,6.48,4.02,0.44,2.14,0.42,952.67,1211.89,0,21,1
-1.71,8.18,1.78,0.85,5.97,-0.09,762.42,832.66,0,21,1
-2.47,11.94,3.17,0.49,0.9,-0.53,922.2,1107.58,0,21,1
-1.23,12.87,2.89,0.66,-0.24,-0.41,748.49,865.79,0,21,1
-2.62,11.03,1.17,0.15,-0.38,0.04,1607.39,1897.36,1,21,1
-2.19,8.84,1.1,-0.17,-0.03,0.18,1259.15,1418.35,1,21,1
-2.52,9.01,1.32,-0.05,0.13,0.17,989.95,1090.31,0,22,1
-3.19,9.22,1.93,-0.09,-0.28,0.12,989.47,1131.31,0,22,1
-3.23,8.73,2.32,-0.19,-0.57,0.03,1225.87,1516.79,1,22,1
-2.51,8.51,2.39,-0.22,-0.29,-0.1,1338.81,1548.48,1,22,1
-2.85,8.85,2.73,-0.18,-0.33,-0.13,1341.11,1490.06,1,22,1
-2.24,8.73,2.72,-0.11,-0.27,0.02,1345.37,1484.22,1,22,1
-1.84,8.2,2.62,-0.12,-0.16,-0.09,1284.75,1438.54,1,22,1
-2.92,8.34,3.1,-0.09,0.02,-0.15,1376.62,1534.28,1,22,1
-3.05,8.63,3.16,0.03,0.03,-0.08,1291.77,1482.61,1,22,1
-2.88,8.66,2.77,-0.03,-0.01,-0.06,1264.08,1435.12,1,22,1
-3.75,-4.52,7.13,-0.06,0.1,0.04,0.0,0.0,0,51,1
-3.75,-4.57,7.11,-0.08,0.05,0.03,0.0,0.0,0,51,1
-3.69,-4.55,7.13,-0.09,0.03,-0.01,0.0,0.0,0,51,1
-3.58,-4.7,7.09,-0.07,-0.01,0.03,0.0,0.0,0,51,1
-3.71,-4.6,7.1,-0.04,0.01,0.01,0.0,0.0,0,51,1
-3.6,-4.6,7.09,-0.07,0.03,0.01,0.0,0.0,0,51,1
-3.82,-4.56,7.13,-0.09,0.02,0.05,0.0,0.0,0,51,1
-3.8,-4.63,7.02,-0.07,-0.03,0.07,0.0,342.96,0,51,1
-3.75,-4.57,7.09,-0.02,0.02,0.04,0.0,338.26,0,51,1
-3.8,-4.52,7.15,-0.07,0.03,0.0,0.0,0.0,0,51,1
-3.77,-4.53,7.06,-0.05,0.05,0.03,0.0,0.0,0,51,1
-3.79,-4.52,7.12,-0.07,0.02,0.02,0.0,0.0,0,51,1
-3.76,-4.53,7.1,-0.08,0.05,0.03,0.0,0.0,0,51,1
-3.86,-4.53,7.08,-0.05,0.03,0.01,0.0,0.0,0,51,1
-3.67,-4.55,7.08,-0.06,0.05,0.01,0.0,0.0,0,51,1
-3.87,-4.51,7.12,-0.06,0.04,0.01,0.0,0.0,0,51,1
-3.81,-4.52,7.11,-0.07,0.06,0.03,0.0,0.0,0,51,1
-3.85,-4.54,7.11,-0.06,0.05,0.02,0.0,0.0,0,51,1
-3.74,-4.52,7.07,-0.06,0.04,0.02,0.0,0.0,0,51,1
-3.85,-4.5,7.14,-0.06,0.05,0.01,0.0,0.0,0,51,1
-3.82,-4.53,7.11,-0.05,0.04,0.01,0.0,0.0,0,51,1
-3.77,-4.51,7.11,-0.07,0.04,0.02,0.0,0.0,0,51,1
-3.76,-4.51,7.08,-0.06,0.01,0.0,0.0,0.0,0,51,1
-3.77,-4.52,7.11,-0.07,0.05,0.02,0.0,0.0,0,51,1
-3.8,-4.51,7.13,-0.07,0.04,0.02,0.0,0.0,0,51,1
-3.75,-4.52,7.1,-0.08,0.0,0.02,0.0,0.0,0,51,1
-3.73,-4.54,7.08,-0.07,0.05,0.02,0.0,0.0,0,51,1
-3.83,-4.52,7.12,-0.06,0.06,0.02,0.0,0.0,0,51,1
-3.79,-4.51,7.11,-0.07,0.06,0.03,0.0,0.0,0,51,1
-3.79,-4.51,7.08,-0.07,0.03,0.02,0.0,0.0,0,51,1
-3.75,-4.53,7.07,-0.06,0.06,0.03,0.0,0.0,0,51,1
-3.85,-4.52,7.11,-0.05,0.03,0.04,0.0,0.0,0,51,1
-3.8,-4.53,7.1,-0.06,0.04,0.03,0.0,0.0,0,51,1
-3.81,-4.44,7.15,-0.03,0.04,0.05,0.0,0.0,0,51,1
-3.75,-4.46,7.27,-0.15,0.04,0.04,0.0,0.0,0,51,1
-3.87,-4.88,6.97,-0.33,0.2,-0.12,0.0,0.0,0,51,1
-3.72,-5.35,7.19,-0.33,0.48,-0.08,0.0,0.0,0,51,1
-6.18,-6.96,7.06,0.12,0.6,0.37,0.0,0.0,0,51,1
-7.45,-7.09,7.36,0.38,0.83,1.8,0.0,0.0,0,51,1
-6.72,-3.79,6.51,0.34,0.82,2.55,0.0,0.0,0,51,1
-6.24,-0.12,6.58,0.4,-0.09,2.06,0.0,0.0,0,51,1
-6.0,1.13,5.29,0.74,0.11,1.6,0.0,0.0,0,51,1
-5.35,2.04,4.42,0.61,-0.06,1.24,0.0,0.0,0,51,1
-3.72,3.22,3.3,-0.05,-0.15,0.45,0.0,0.0,0,51,1
-4.2,2.74,5.04,-0.79,-0.18,-0.55,0.0,0.0,0,51,1
-6.43,2.22,6.52,-0.61,0.4,-0.61,0.0,0.0,0,51,1
-7.13,2.81,8.65,0.15,0.04,-0.44,0.0,0.0,0,51,1
-7.26,3.26,8.55,1.42,0.61,-0.04,0.0,0.0,0,51,1
-8.28,3.4,4.85,2.04,1.84,0.62,0.0,0.0,0,51,1
-9.1,4.85,1.83,1.49,1.66,1.59,0.0,0.0,0,51,1
-8.4,7.26,0.17,0.73,1.06,2.06,0.0,0.0,0,51,1
-5.77,8.13,-1.11,0.21,-0.11,2.49,0.0,0.0,0,51,1
-3.1,7.65,-1.39,-0.23,-0.6,2.53,410.69,532.57,0,51,1
0.5,7.01,-0.1,-0.61,-0.88,1.82,311.44,379.39,0,51,1
1.71,7.51,1.44,-0.89,-0.54,0.85,0.0,0.0,0,51,1
2.57,8.9,1.94,-0.73,-0.6,0.26,314.39,375.87,0,51,1
2.3,9.18,2.57,-0.51,-0.66,-0.12,315.1,357.67,0,51,1
2.07,9.31,2.19,-0.29,-0.24,-0.25,0.0,335.76,0,51,1
1.4,9.44,2.45,-0.19,-0.15,-0.16,316.59,388.58,0,51,1
1.46,9.15,2.44,-0.07,0.04,0.0,328.44,387.92,0,51,1
1.48,9.02,2.66,-0.1,0.1,-0.06,392.95,448.85,0,51,1
1.08,9.33,2.93,-0.09,0.13,-0.01,375.06,420.93,0,51,1
1.41,8.97,2.94,-0.09,0.12,0.04,360.35,394.06,0,51,1
1.2,9.0,3.32,-0.11,-0.01,0.04,355.39,397.61,0,51,1
1.6,8.88,3.07,-0.04,-0.1,0.06,399.3,445.67,0,51,1
1.87,8.97,2.76,-0.03,-0.15,0.07,390.32,445.68,0,51,1
1.78,8.97,2.47,-0.0,-0.05,-0.01,360.25,413.17,0,51,1
1.49,9.09,2.45,-0.05,0.08,0.0,370.05,418.38,0,51,1
1.42,9.16,2.81,-0.0,0.05,0.03,387.9,429.41,0,51,1
1.39,9.22,2.72,-0.01,0.06,0.03,371.73,423.29,0,51,1
1.6,9.12,2.75,-0.07,-0.02,0.04,387.06,446.12,0,51,1
1.7,9.04,2.44,-0.06,0.05,0.01,389.36,435.98,0,51,1
1.61,9.11,2.48,-0.09,0.05,0.0,352.42,396.64,0,51,1
1.63,9.11,2.56,-0.06,0.1,-0.02,365.83,430.32,0,51,1
1.55,9.08,2.64,-0.08,0.06,-0.03,364.05,418.85,0,51,1
1.38,9.16,2.75,-0.07,0.05,-0.03,431.02,510.08,0,51,1
1.36,9.17,2.59,-0.09,0.07,-0.03,433.04,478.81,0,51,1
1.33,9.14,2.77,-0.08,0.07,-0.02,419.96,470.74,0,51,1
1.3,9.2,2.63,-0.05,0.07,0.02,423.29,481.64,0,51,1
1.22,9.15,2.68,-0.09,0.05,0.02,428.75,481.45,0,51,1
1.27,9.1,2.74,-0.06,0.04,0.02,402.26,450.52,0,51,1
1.31,9.09,2.62,-0.07,0.03,-0.01,406.93,455.07,0,51,1
1.15,9.15,2.68,-0.07,0.08,-0.01,432.9,478.93,0,51,1
1.26,9.08,2.73,-0.08,0.06,-0.0,405.88,450.45,0,51,1
1.16,9.15,2.74,-0.08,0.09,-0.05,408.26,454.21,0,51,1
0.95,9.15,2.81,-0.07,0.08,0.0,457.44,512.55,0,51,1
1.07,9.11,2.73,-0.09,0.09,0.0,475.11,535.14,0,51,1
1.1,9.05,2.67,-0.09,0.1,-0.02,406.71,454.76,0,51,1
1.0,9.13,2.76,-0.07,0.12,-0.03,424.83,468.28,0,51,1
1.02,9.05,2.8,-0.08,0.09,0.01,432.62,486.95,0,51,1
0.95,9.05,2.88,-0.08,0.07,-0.03,425.34,474.19,0,51,1
0.82,9.22,2.72,-0.08,0.05,-0.04,437.65,490.25,0,51,1
0.76,9.24,2.8,-0.1,0.08,-0.02,444.82,501.53,0,51,1
0.61,9.15,2.87,-0.08,0.11,0.02,440.54,492.95,0,51,1
0.75,9.05,2.87,-0.1,0.08,0.04,429.97,487.62,0,51,1
3.08,8.01,4.26,-0.08,0.02,0.05,1774.64,2242.5,1,0,1
3.05,7.97,3.9,0.18,0.05,0.14,1354.1,1771.99,1,0,1
3.0,8.12,3.46,0.27,0.25,0.19,1308.04,1592.89,1,0,1
3.28,8.45,3.64,0.33,0.28,0.19,1297.76,1508.12,1,0,1
3.43,8.62,3.02,0.28,0.21,0.2,1335.29,1489.27,1,0,1
3.59,8.49,2.83,0.17,0.08,0.16,1329.09,1452.83,1,0,1
3.78,8.53,2.79,0.07,0.04,0.13,1305.19,1418.81,1,0,1
3.79,8.44,2.83,-0.05,-0.01,0.03,1250.91,1383.05,1,0,1
3.88,8.31,2.7,-0.09,-0.09,-0.02,1256.51,1403.51,1,0,1
4.03,8.5,2.47,-0.02,-0.0,-0.03,1251.5,1395.94,1,0,1
3.78,8.76,2.34,-0.01,0.09,0.0,1215.48,1355.6,1,0,1
3.55,8.81,2.62,-0.02,0.12,0.03,1229.08,1382.13,1,0,1
3.26,8.78,2.65,0.02,0.17,0.17,1227.26,1385.85,1,0,1
3.64,8.5,2.64,-0.02,0.14,0.2,1130.18,1253.36,0,1,1
3.83,8.34,2.77,-0.07,0.08,0.09,1077.86,1204.65,0,1,1
3.89,8.45,2.58,-0.09,0.02,0.04,1061.23,1192.5,0,1,1
3.88,8.61,2.55,-0.09,0.04,0.02,1087.86,1232.21,0,1,1
3.84,8.44,2.64,-0.07,0.08,0.05,1054.68,1175.39,0,1,1
3.84,8.44,2.61,-0.07,0.1,0.04,1085.67,1215.64,0,1,1
3.81,8.45,2.79,-0.09,0.07,0.04,1051.99,1171.86,0,1,1
3.93,8.47,2.75,-0.07,0.06,0.05,1031.49,1143.31,0,1,1
4.15,8.52,2.81,-0.06,0.01,-0.0,1062.16,1185.96,0,1,1
4.41,8.49,2.99,-0.04,-0.13,-0.16,1089.71,1222.06,0,1,1
6.52,8.56,3.09,0.1,-0.38,-0.89,1065.15,1188.57,0,1,1
3.79,9.05,2.24,0.18,0.09,-1.91,915.86,1049.08,0,1,1
-0.57,10.65,2.17,0.17,0.1,-1.87,794.34,898.33,0,1,1
-0.86,9.89,1.61,0.16,-0.6,-2.02,779.45,885.6,0,1,1
-3.49,6.62,1.67,0.12,-0.7,-2.56,647.98,733.95,0,1,1
-4.58,3.0,1.86,0.04,-0.53,-3.0,579.01,710.95,0,1,1
-7.49,2.06,1.93,0.47,-0.25,-2.52,561.56,645.02,0,1,1
-12.17,4.6,1.71,-0.01,0.53,-0.0,429.55,475.83,0,1,1
-8.92,4.51,1.34,-0.16,0.31,-0.0,305.19,348.3,0,1,1
-8.39,4.66,1.51,-0.14,-0.21,0.3,0.0,0.0,0,1,1
-7.7,4.65,1.76,-0.15,-0.0,0.36,0.0,0.0,0,1,1
-7.09,4.91,1.46,-0.14,-0.1,0.36,0.0,0.0,0,1,1
-8.9,4.57,2.17,-0.2,0.2,0.68,0.0,0.0,0,1,1
-7.58,3.71,2.32,-0.28,0.18,2.47,0.0,0.0,0,1,1
-5.02,5.4,1.48,-0.43,0.55,2.85,372.19,456.99,0,1,1
-2.78,8.47,1.84,-0.5,0.55,2.52,719.2,958.72,0,1,1
0.4,9.55,2.35,-0.35,0.42,2.07,1859.86,2206.22,1,1,1
6.72,8.73,3.02,-0.09,0.42,-0.03,1762.18,1923.15,1,1,1
2.59,8.41,2.94,-0.02,0.0,0.06,1539.7,1644.59,1,1,1
4.24,8.35,3.0,-0.06,-0.16,0.13,1445.61,1532.84,1,1,1
3.36,8.37,3.06,-0.12,0.1,-0.05,1347.64,1450.32,1,1,1
3.85,8.34,2.85,-0.06,0.08,-0.04,1230.05,1361.82,1,1,1
3.6,8.46,2.94,-0.1,-0.03,0.08,1266.74,1410.86,1,1,1
3.93,8.48,3.06,-0.09,0.08,0.04,1267.0,1409.5,1,1,1
3.96,8.42,2.88,-0.08,-0.02,0.02,1224.28,1364.2,1,1,1
4.84,8.45,3.11,-0.07,-0.29,-0.15,1261.77,1422.71,1,1,1
6.51,8.74,3.27,0.0,-0.32,-1.24,1170.87,1295.08,0,2,1
4.67,8.72,3.21,0.03,0.04,-2.2,1255.01,1402.56,1,2,1
0.75,7.78,3.18,0.34,0.3,-2.91,1413.52,1567.4,1,2,1
-3.55,6.28,2.21,0.49,-0.36,-3.24,1378.91,1581.34,1,2,1
-7.51,3.0,1.58,0.62,-0.05,-3.18,1350.85,1457.15,1,2,1
-9.18,2.35,1.36,0.44,-0.89,-2.42,1045.08,1135.35,0,3,1
-10.3,2.68,1.2,0.02,0.12,-0.91,830.01,912.05,0,3,1
-9.35,3.01,1.73,-0.11,-0.13,-0.02,563.11,625.74,0,3,1
-9.26,3.13,1.61,-0.07,0.14,0.03,408.02,452.83,0,3,1
-8.94,3.02,1.61,-0.06,0.0,0.11,372.06,437.31,0,3,1
-8.63,3.2,1.36,-0.05,0.03,0.12,0.0,0.0,0,3,1
-9.21,3.12,1.46,-0.15,0.03,0.39,0.0,0.0,0,3,1
-11.19,2.93,1.72,-0.32,0.24,2.04,0.0,0.0,0,3,1
-8.37,3.55,1.55,-0.49,-0.34,3.1,0.0,0.0,0,3,1
-4.34,5.19,2.56,-0.39,-0.26,3.21,376.05,469.07,0,3,1
-0.57,6.69,2.92,-0.13,0.06,2.88,693.37,947.49,0,3,1
2.05,7.93,2.59,0.11,-0.09,2.5,1865.81,2202.28,1,3,1
8.71,7.72,1.23,0.01,1.09,-0.22,1645.53,1824.91,1,3,1
4.53,7.77,2.63,-0.14,-0.32,0.21,1524.66,1658.2,1,3,1
6.03,7.81,2.17,-0.06,0.38,-0.07,1499.29,1598.12,1,3,1
5.47,7.74,2.46,-0.1,-0.06,0.06,1384.13,1522.08,1,3,1
5.45,7.8,2.35,-0.07,0.01,0.0,1398.46,1536.33,1,3,1
5.38,7.71,2.68,-0.1,-0.03,0.03,1319.29,1450.12,1,3,1
5.41,7.7,2.55,-0.06,0.01,0.06,1398.0,1510.34,1,3,1
5.2,7.73,2.63,-0.1,0.05,-0.0,1390.17,1508.32,1,3,1
5.8,7.8,2.49,-0.09,-0.02,-0.11,1402.72,1503.57,1,3,1
7.62,7.87,2.31,-0.17,-0.24,-0.58,1419.55,1510.44,1,3,1
6.59,7.89,2.8,-0.13,0.78,-1.64,1426.84,1537.17,1,3,1
3.95,8.07,2.68,0.03,0.21,-2.37,1415.06,1525.95,1,3,1
0.5,7.38,2.84,0.03,0.4,-2.94,1341.46,1452.2,1,3,1
-3.6,6.18,3.24,0.18,-0.58,-3.21,1304.36,1520.85,1,3,1
-5.84,4.42,3.52,0.19,0.15,-3.35,1326.13,1435.06,1,3,1
-8.87,0.72,2.25,0.18,-0.24,-3.29,1001.11,1083.53,0,4,1
-12.22,1.87,1.41,0.14,0.85,-1.18,700.17,796.87,0,4,1
-8.8,2.06,2.32,-0.12,-0.03,-0.3,672.08,752.93,0,4,1
-9.4,2.29,2.73,-0.12,-0.08,-0.0,559.7,725.21,0,4,1
-8.73,2.05,2.55,-0.06,0.03,0.11,512.5,720.92,0,4,1
-8.52,1.94,2.09,-0.06,0.13,0.05,362.85,444.97,0,4,1
-11.2,2.04,2.26,-0.17,0.15,0.86,0.0,0.0,0,4,1
-9.82,0.85,2.41,-0.24,0.0,2.66,0.0,0.0,0,4,1
-7.35,4.4,1.64,-0.27,0.64,3.22,0.0,0.0,0,4,1
-4.72,6.27,2.4,-0.54,0.41,3.01,392.49,493.18,0,4,1
-1.76,7.65,2.75,-0.27,-0.0,2.81,580.46,717.29,0,4,1
1.64,8.57,2.14,-0.07,-0.68,2.81,788.89,1055.91,0,4,1
6.05,7.5,2.46,0.25,-0.54,2.39,1086.4,1450.61,1,4,1
5.43,8.17,2.33,0.05,0.25,0.03,1800.08,2034.19,1,4,1
3.91,8.39,2.28,-0.18,0.23,0.01,1475.39,1643.19,1,4,1
4.81,8.34,1.97,-0.01,0.1,0.07,1437.71,1533.59,1,4,1
4.65,8.29,2.27,-0.08,0.07,0.03,1300.48,1400.03,1,4,1
5.16,8.22,2.17,-0.06,-0.03,0.03,1276.03,1401.07,1,4,1
5.47,8.44,1.72,-0.11,-0.3,-0.18,1203.42,1338.52,1,4,1
7.2,8.49,1.74,-0.23,-0.15,-0.92,1222.18,1387.86,1,4,1
5.32,8.7,1.49,-0.37,0.19,-1.95,1228.76,1380.13,1,4,1
2.42,7.87,2.98,-0.47,0.25,-2.51,1474.0,1636.26,1,4,1
-2.07,7.08,2.06,-0.04,0.16,-2.96,1386.16,1609.4,1,4,1
-5.64,6.05,2.49,-0.04,-0.17,-2.94,1133.04,1303.42,0,5,1
-7.9,4.5,2.62,-0.06,-0.2,-2.59,996.82,1081.28,0,5,1
-7.86,2.48,2.93,-0.06,-0.06,-2.2,679.99,759.68,0,5,1
-9.44,1.25,2.94,-0.08,-0.18,-1.81,693.75,886.3,0,5,1
-10.3,1.79,3.21,-0.16,-0.4,-0.29,799.3,1030.21,0,5,1
-9.66,1.78,3.46,-0.07,-0.13,0.07,569.76,621.15,0,5,1
-8.55,1.47,3.44,-0.05,-0.01,0.1,485.08,616.0,0,5,1
-8.15,1.71,3.0,-0.01,0.33,-0.03,400.45,461.52,0,5,1
-8.22,1.74,3.04,-0.07,0.08,0.03,322.05,404.7,0,5,1
-10.83,1.95,3.45,-0.02,0.22,0.81,0.0,305.09,0,5,1
-10.17,1.1,3.44,0.07,0.32,2.15,0.0,0.0,0,5,1
-8.55,2.53,2.7,0.08,0.63,3.04,0.0,0.0,0,5,1
-5.19,4.56,2.38,-0.21,0.21,3.24,0.0,345.41,0,5,1
-2.05,7.09,2.34,-0.08,0.06,2.81,474.3,579.75,0,5,1
0.88,8.67,2.39,0.04,-0.15,2.38,747.97,930.84,0,5,1
3.79,8.59,2.06,0.18,-0.3,2.12,904.8,1167.43,0,5,1
5.49,8.36,2.37,0.28,0.02,1.8,1095.58,1351.09,0,5,1
8.09,8.48,1.31,0.01,0.5,0.02,1119.3,1339.49,0,5,1
2.5,8.32,2.51,-0.21,-0.02,0.06,1287.5,1518.29,1,5,1
4.55,8.34,2.25,-0.05,0.08,0.06,1376.1,1556.91,1,5,1
4.31,8.5,2.26,-0.08,0.04,-0.02,1306.98,1449.3,1,5,1
4.62,8.37,2.07,-0.07,-0.08,0.07,1305.46,1432.35,1,5,1
4.68,8.54,2.16,-0.06,-0.09,-0.07,1359.09,1518.56,1,5,1
5.5,8.71,2.13,-0.09,-0.14,-0.36,1306.47,1460.42,1,5,1
6.56,8.68,1.61,-0.26,0.3,-1.37,1512.75,1608.41,1,5,1
3.17,8.57,2.06,-0.31,0.34,-1.94,1456.55,1560.74,1,5,1
0.88,8.21,2.66,-0.31,0.06,-2.14,1281.2,1419.05,1,5,1
-2.6,7.65,3.54,-0.2,-0.15,-2.25,1219.23,1402.97,1,5,1
-4.3,6.58,3.1,-0.06,-0.14,-2.11,1028.86,1157.76,0,6,1
-6.1,6.23,2.94,0.06,0.14,-1.98,782.98,920.19,0,6,1
-6.89,4.26,2.8,-0.21,-0.04,-2.13,612.27,703.78,0,6,1
-7.84,2.24,3.23,-0.33,-0.25,-2.2,584.12,669.17,0,6,1
-9.92,1.39,3.34,-0.09,0.54,-1.35,481.88,553.82,0,6,1
-10.61,2.06,3.17,-0.02,0.14,-0.05,426.71,487.57,0,6,1
-9.15,1.6,3.19,-0.06,0.03,0.02,420.38,597.36,0,6,1
-8.41,1.71,3.18,-0.03,0.04,0.11,439.48,668.32,0,6,1
-9.05,1.71,2.98,-0.07,0.08,0.26,0.0,0.0,0,6,1
-9.65,1.8,3.35,-0.1,-0.09,0.84,0.0,0.0,0,6,1
-9.51,1.57,4.19,0.02,-0.32,1.87,0.0,0.0,0,6,1
-7.59,3.47,3.75,0.21,0.13,2.85,362.31,454.33,0,6,1
-4.94,5.86,3.2,0.1,0.37,2.88,396.1,484.15,0,6,1
-2.28,7.26,2.7,0.37,0.1,2.5,471.98,580.97,0,6,1
-0.37,8.62,2.8,0.2,-0.12,2.34,423.62,534.97,0,6,1
3.4,8.54,2.35,0.27,0.03,2.03,647.59,807.39,0,6,1
5.15,8.73,1.95,0.4,0.11,1.36,713.7,880.36,0,6,1
7.13,9.37,1.25,0.01,0.27,0.16,725.72,902.66,0,6,1
1.86,8.87,2.73,-0.15,-0.04,0.06,635.53,750.75,0,6,1
4.0,8.73,1.81,0.03,-0.09,0.12,653.05,760.89,0,6,1
2.97,8.65,2.37,-0.14,0.03,-0.01,687.53,787.89,0,6,1
3.61,8.79,2.16,-0.0,-0.07,0.11,735.24,896.36,0,6,1
3.36,8.87,1.98,-0.1,0.01,0.04,775.82,925.35,0,6,1
3.57,8.6,2.2,-0.02,-0.01,0.04,751.15,855.54,0,6,1
3.69,8.83,2.05,-0.06,0.09,-0.06,837.62,1019.48,0,6,1
3.82,8.71,2.28,-0.03,-0.02,-0.14,855.67,999.06,0,6,1
5.94,9.18,1.45,-0.18,-0.21,-0.57,1017.3,1201.66,0,6,1
4.71,9.23,1.82,-0.33,-0.21,-1.27,1058.03,1283.49,0,6,1
2.29,9.33,2.42,-0.37,0.05,-1.89,1165.91,1375.86,0,6,1
-0.43,8.25,2.78,-0.31,-0.2,-2.22,949.61,1136.78,0,6,1
-4.02,6.71,2.92,-0.28,-0.15,-2.41,786.37,910.28,0,6,1
-6.4,5.38,2.64,-0.39,-0.28,-2.19,688.84,828.54,0,6,1
-5.31,5.08,4.17,-0.39,-0.17,-2.06,547.9,644.37,0,6,1
-6.87,2.24,4.31,-0.16,0.13,-2.45,482.9,545.5,0,6,1
-12.28,1.21,3.1,-0.02,0.66,-1.22,542.77,680.4,0,6,1
-8.05,2.09,3.38,-0.09,-0.38,0.03,403.07,457.15,0,6,1
-8.57,2.02,3.41,-0.08,-0.02,0.11,343.36,453.71,0,6,1
-9.5,1.9,3.61,-0.08,-0.09,0.45,0.0,0.0,0,6,1
-8.21,1.83,3.75,0.07,0.08,1.3,0.0,0.0,0,6,1
-8.25,3.92,2.73,0.21,0.83,2.29,0.0,0.0,0,6,1
-7.04,5.09,2.94,0.01,0.1,2.76,0.0,357.06,0,6,1
-4.14,5.02,3.22,0.2,0.11,2.71,412.68,501.71,0,6,1
-1.76,8.75,2.32,0.15,-0.27,2.44,554.73,682.41,0,6,1
1.05,8.53,2.11,0.11,0.04,2.15,575.8,671.12,0,6,1
2.89,8.62,2.43,0.36,-0.06,2.0,639.0,759.63,0,6,1
9.6,9.13,0.46,0.19,0.49,0.67,757.73,951.94,0,6,1
1.83,8.87,1.75,-0.36,0.17,-0.19,666.48,783.47,0,6,1
4.44,8.69,2.03,0.05,0.12,0.14,789.66,914.64,0,6,1
3.56,8.87,1.5,-0.2,0.08,-0.06,741.13,854.58,0,6,1
3.69,8.8,2.22,-0.06,-0.0,0.05,863.04,1009.66,0,6,1
3.45,9.07,1.79,-0.12,-0.01,0.03,921.11,1085.94,0,6,1
3.64,8.75,2.0,-0.1,0.03,0.01,765.95,867.09,0,6,1
3.58,8.89,1.93,-0.11,-0.0,-0.02,744.09,831.38,0,6,1
5.2,9.14,1.89,-0.15,-0.13,-0.28,823.86,917.89,0,6,1
3.71,9.06,2.26,-0.25,0.12,-0.97,944.21,1104.95,0,6,1
3.9,9.41,1.66,-0.16,-0.02,-1.35,1149.05,1418.01,1,6,1
-6.74,4.98,3.19,-0.04,-0.01,-2.56,806.12,927.54,0,7,1
-6.95,5.04,2.82,-0.02,-0.13,-2.03,682.97,771.01,0,7,1
-5.51,3.17,2.83,-0.21,-0.23,-2.55,472.71,572.0,0,7,1
-10.06,-1.35,3.77,-0.19,0.39,-2.83,457.64,556.41,0,7,1
-10.79,1.95,2.92,-0.26,-1.06,0.04,442.77,488.0,0,7,1
-10.34,0.96,3.83,-0.1,0.13,0.02,458.33,550.02,0,7,1
-8.61,1.46,3.46,-0.09,-0.1,0.2,399.76,542.41,0,7,1
-8.86,1.53,3.35,-0.06,0.12,0.4,0.0,0.0,0,7,1
-9.55,1.48,3.46,-0.0,-0.01,1.45,0.0,0.0,0,7,1
-9.11,1.86,3.65,0.17,0.27,2.77,0.0,0.0,0,7,1
-6.41,5.11,2.83,-0.01,0.36,2.97,0.0,378.28,0,7,1
-3.72,6.76,3.0,0.02,0.1,2.6,388.82,499.42,0,7,1
-0.88,8.25,3.01,0.1,-0.23,2.19,454.43,556.81,0,7,1
0.92,8.52,2.14,-0.02,0.12,1.78,515.55,621.6,0,7,1
1.68,8.95,4.06,0.16,-0.04,1.59,570.66,702.81,0,7,1
5.72,9.62,2.71,0.31,0.23,1.12,432.64,519.16,0,7,1
3.11,8.85,2.27,-0.14,0.22,-0.14,492.16,593.87,0,7,1
2.77,8.62,2.69,-0.01,0.09,0.19,645.25,859.61,0,7,1
3.45,8.9,2.09,-0.05,0.28,-0.03,554.77,678.34,0,7,1
2.55,8.62,3.31,-0.05,0.17,0.04,620.44,710.75,0,7,1
3.16,8.82,2.65,0.04,0.12,0.05,518.79,597.34,0,7,1
2.86,8.9,2.33,-0.09,0.01,0.02,542.86,627.67,0,7,1
3.32,8.89,2.09,-0.14,0.06,0.01,587.67,680.23,0,7,1
4.5,8.97,2.58,-0.11,-0.09,-0.17,551.3,642.19,0,7,1
5.53,9.02,2.29,-0.22,0.21,-0.84,583.62,678.96,0,7,1
0.16,8.91,3.17,0.08,0.27,-1.28,650.71,777.76,0,7,1
0.05,9.23,1.95,-0.02,0.04,-1.27,717.4,883.07,0,7,1
-0.18,8.91,2.23,-0.12,-0.48,-1.22,675.32,775.74,0,7,1
-1.52,8.17,2.4,-0.21,-0.02,-1.48,647.52,748.49,0,7,1
-3.0,7.93,3.17,-0.17,-0.22,-1.62,572.89,644.83,0,7,1
-3.46,7.06,3.01,-0.18,-0.22,-2.34,551.69,664.94,0,7,1
-5.63,3.11,2.78,-0.24,0.21,-3.35,501.18,562.14,0,7,1
-12.39,-0.94,4.66,-0.31,-1.08,-2.89,640.48,833.05,0,7,1
-9.57,1.45,3.36,-0.26,-0.55,-0.22,799.38,1055.08,0,7,1
-9.18,1.71,4.06,-0.05,0.14,0.18,618.03,790.82,0,7,1
-8.54,1.53,3.62,-0.08,0.13,0.15,452.23,513.43,0,7,1
-8.95,1.54,3.65,-0.1,0.02,0.66,344.11,453.76,0,7,1
-9.54,1.26,3.85,0.04,-0.12,1.89,327.93,444.3,0,7,1
-7.13,4.56,3.36,0.27,-0.09,2.43,370.21,473.68,0,7,1
-5.25,7.01,2.96,0.16,0.35,2.33,379.47,450.32,0,7,1
-2.89,7.28,2.89,0.1,-0.12,2.04,373.87,444.76,0,7,1
-2.52,7.75,3.05,0.11,0.07,1.82,438.63,513.92,0,7,1
-1.13,8.0,2.87,0.23,-0.1,1.9,543.38,632.14,0,7,1
-0.12,8.13,3.21,0.43,-0.07,2.31,603.45,708.6,0,7,1
9.38,8.17,0.67,0.65,0.04,2.15,701.61,868.51,0,7,1
3.74,8.86,0.66,-0.3,0.44,-0.65,901.9,1143.94,0,7,1
4.26,8.15,3.19,-0.05,-0.04,0.44,1028.65,1293.1,0,7,1
4.05,8.98,1.15,-0.06,0.21,-0.09,873.04,988.93,0,7,1
4.22,8.31,2.74,-0.1,0.19,0.12,975.12,1133.23,0,7,1
4.31,8.49,1.9,0.0,0.04,-0.05,990.02,1191.24,0,7,1
4.17,8.69,2.12,-0.1,-0.0,-0.02,1088.22,1255.03,0,7,1
4.69,8.74,2.0,-0.07,-0.09,-0.08,1126.23,1286.82,0,7,1
5.66,8.62,1.99,-0.21,-0.26,-0.55,1231.67,1435.94,1,7,1
0.22,8.92,2.39,-0.3,-0.12,-1.45,1153.56,1325.77,0,8,1
-2.3,8.35,3.34,-0.33,-0.0,-1.28,1012.8,1105.96,0,8,1
-1.81,8.69,2.91,-0.17,-0.07,-1.06,782.93,886.72,0,8,1
0.3,8.75,2.41,-0.35,-0.19,-1.56,774.37,859.19,0,8,1
-1.85,6.79,3.19,-0.39,-0.17,-2.57,691.97,807.37,0,8,1
-4.4,1.32,2.7,-0.54,0.08,-4.29,587.0,724.6,0,8,1
-14.4,-4.56,3.93,-0.14,1.47,-3.52,593.69,744.48,0,8,1
-7.5,0.33,3.59,-0.3,-1.74,0.21,599.54,759.85,0,8,1
-9.68,1.02,3.26,-0.08,-0.32,0.11,588.99,711.17,0,8,1
-8.48,0.74,3.67,-0.02,0.05,0.35,441.98,479.35,0,8,1
-10.1,0.9,3.73,0.05,0.05,1.12,0.0,318.0,0,8,1
-9.92,1.42,4.03,0.18,-0.02,2.16,0.0,0.0,0,8,1
-7.56,3.45,3.68,0.33,0.33,2.88,0.0,307.48,0,8,1
-5.22,6.57,2.49,0.22,0.25,2.89,378.35,469.44,0,8,1
-2.17,7.64,2.64,0.4,0.23,2.53,431.77,554.85,0,8,1
-0.42,8.04,2.23,0.44,0.18,2.33,517.11,645.01,0,8,1
2.53,8.83,1.39,0.57,0.35,2.12,877.17,1160.42,0,8,1
5.49,8.67,0.87,0.44,0.19,1.79,1082.54,1455.15,1,8,1
8.5,8.81,-0.2,0.07,0.3,-0.05,1714.82,1974.68,1,8,1
2.24,8.79,1.62,-0.23,-0.28,0.19,1552.5,1708.16,1,8,1
4.51,8.79,0.86,-0.1,0.03,-0.06,1464.86,1608.2,1,8,1
4.2,9.15,0.99,-0.12,-0.02,-0.09,1439.37,1586.06,1,8,1
4.58,9.0,0.97,-0.13,-0.09,-0.2,1407.78,1544.62,1,8,1
4.09,8.99,1.14,-0.15,0.12,-0.35,1498.18,1601.05,1,8,1
4.53,9.48,1.03,-0.17,-0.01,-0.5,1492.39,1572.6,1,8,1
4.87,9.22,0.78,-0.21,-0.11,-1.05,1429.66,1553.37,1,8,1
2.39,9.19,1.39,-0.23,0.25,-1.58,1334.27,1450.06,1,8,1
-0.37,9.02,1.31,-0.33,-0.16,-1.78,1266.68,1417.27,1,8,1
-2.68,8.44,1.95,-0.24,-0.21,-1.92,1027.48,1194.08,0,9,1
-3.59,7.47,2.71,-0.17,-0.67,-2.21,868.5,1018.63,0,9,1
-4.74,4.71,2.1,-0.0,0.43,-3.05,759.54,875.54,0,9,1
-7.08,0.05,1.68,-0.23,0.1,-3.77,574.53,645.97,0,9,1
-14.52,0.42,1.16,0.11,1.01,-1.35,509.99,553.31,0,9,1
-9.12,0.66,1.86,-0.27,-0.72,0.18,386.51,412.82,0,9,1
-9.76,1.01,2.26,-0.17,-0.05,0.07,0.0,0.0,0,9,1
-9.37,1.02,2.31,-0.11,0.1,0.34,0.0,0.0,0,9,1
-9.78,1.42,2.23,-0.05,0.16,0.68,0.0,0.0,0,9,1
-10.95,1.11,2.09,-0.07,0.26,1.91,0.0,0.0,0,9,1
-9.79,2.76,1.72,-0.07,-0.04,3.2,0.0,0.0,0,9,1
-5.77,5.34,1.51,-0.06,0.85,3.31,341.34,439.03,0,9,1
-1.83,6.99,1.42,-0.12,-0.46,3.14,454.77,592.52,0,9,1
1.05,8.54,1.55,0.12,-0.04,2.6,746.21,1000.63,0,9,1
3.32,8.4,1.28,0.29,-0.25,1.98,1109.47,1432.12,1,9,1
2.36,8.81,1.68,-0.24,-0.01,0.06,1948.9,2156.53,1,9,1
5.16,8.84,0.74,0.05,0.28,0.04,1550.84,1702.0,1,9,1
3.91,8.88,1.11,-0.14,0.13,-0.02,1495.48,1579.82,1,9,1
4.14,8.86,1.3,-0.02,0.04,0.0,1422.17,1513.64,1,9,1
4.39,9.03,0.84,-0.13,-0.0,-0.07,1307.82,1411.24,1,9,1
4.65,8.86,1.07,-0.17,0.13,-0.28,1291.59,1430.15,1,9,1
4.62,9.08,1.13,-0.21,0.05,-0.63,1311.04,1440.26,1,9,1
3.74,9.23,1.71,-0.23,-0.02,-1.03,1322.76,1439.79,1,9,1
3.14,9.14,1.47,-0.13,0.17,-1.54,1369.26,1486.06,1,9,1
0.78,8.62,1.59,-0.08,0.11,-2.17,1394.9,1540.65,1,9,1
-1.75,7.82,1.59,0.01,0.08,-2.65,1185.19,1393.57,0,10,1
-6.76,5.87,1.77,0.17,-1.03,-2.94,1047.33,1194.76,0,10,1
-9.1,3.27,1.4,0.39,0.03,-3.0,894.15,940.87,0,10,1
-9.73,0.19,1.3,0.27,-0.49,-2.95,704.46,728.34,0,10,1
-12.65,1.33,0.0,0.11,0.93,-0.46,440.09,470.2,0,10,1
-8.48,1.08,0.94,-0.21,-1.0,0.19,0.0,320.92,0,10,1
-9.85,1.16,1.8,-0.09,0.09,0.02,0.0,0.0,0,10,1
-9.02,1.31,1.19,-0.1,0.11,0.21,0.0,0.0,0,10,1
-11.1,1.04,1.12,-0.2,0.31,1.37,0.0,0.0,0,10,1
-11.24,2.21,1.14,-0.22,0.38,2.56,0.0,0.0,0,10,1
-8.52,4.02,1.16,-0.27,0.53,3.27,0.0,349.61,0,10,1
-4.1,6.66,0.67,-0.28,0.07,3.07,472.28,640.16,0,10,1
-1.1,7.97,0.76,-0.09,0.25,2.87,582.82,773.1,0,10,1
1.43,8.19,1.13,-0.06,-0.36,2.63,1073.88,1465.2,1,10,1
4.65,8.71,0.55,-0.18,1.01,-0.54,1481.08,1864.72,1,10,1
3.41,8.63,1.39,-0.2,-0.33,0.13,1468.75,1705.82,1,10,1
5.52,8.64,0.81,-0.03,0.18,0.03,1412.17,1575.58,1,10,1
4.3,8.46,1.31,-0.11,0.28,-0.02,1285.28,1442.22,1,10,1
4.79,8.72,1.32,-0.02,0.08,0.06,1363.16,1469.49,1,10,1
5.12,8.8,1.11,-0.11,-0.13,-0.08,1282.64,1430.61,1,10,1
6.42,8.78,1.04,-0.31,0.19,-0.52,1297.9,1436.57,1,10,1
4.96,8.54,1.76,-0.21,0.09,-1.28,1162.99,1315.45,0,11,1
2.87,8.67,1.4,-0.19,0.08,-1.76,1341.19,1440.21,1,11,1
0.93,8.87,0.97,0.02,0.2,-1.91,1322.86,1447.53,1,11,1
-0.89,8.52,0.74,0.13,0.46,-2.13,1321.75,1425.79,1,11,1
-3.66,7.86,0.97,0.27,0.38,-2.26,1136.94,1324.65,0,12,1
-5.43,5.73,1.19,0.32,0.13,-2.49,1006.07,1110.06,0,12,1
-4.86,2.97,0.79,0.18,0.14,-2.95,813.66,863.93,0,12,1
-8.37,-1.65,1.04,0.23,-0.64,-3.62,581.87,615.8,0,12,1
-15.59,2.62,0.6,0.04,1.18,0.12,390.08,426.16,0,12,1
-8.18,0.31,0.57,-0.06,-0.19,-0.13,0.0,312.48,0,12,1
-9.17,0.87,1.02,-0.15,-0.52,0.19,0.0,0.0,0,12,1
-9.44,0.75,1.05,-0.17,0.11,0.32,0.0,0.0,0,12,1
-11.18,1.05,0.83,-0.23,0.46,0.86,0.0,0.0,0,12,1
-11.24,0.94,0.79,-0.53,0.45,2.38,0.0,0.0,0,12,1
-9.47,2.98,0.89,-0.52,0.67,3.27,0.0,0.0,0,12,1
-5.78,5.34,0.41,-0.6,0.29,3.23,368.14,463.8,0,12,1
-2.79,7.4,0.91,-0.65,0.31,3.02,514.32,649.18,0,12,1
0.77,7.89,1.48,-0.46,-0.64,2.88,715.62,915.63,0,12,1
4.34,7.97,2.96,-0.24,-0.13,2.4,1076.05,1412.1,1,12,1
4.87,8.54,2.36,-0.0,-0.31,0.2,1894.56,2091.97,1,12,1
3.36,8.88,1.73,-0.07,0.22,-0.07,1559.99,1700.1,1,12,1
4.08,8.6,2.17,-0.07,-0.11,0.03,1481.37,1598.11,1,12,1
3.65,8.85,1.93,-0.06,0.07,-0.03,1475.08,1581.06,1,12,1
3.9,8.79,1.89,-0.12,-0.02,-0.06,1524.33,1612.93,1,12,1
4.28,8.79,1.81,-0.06,-0.05,-0.24,1478.08,1565.81,1,12,1
4.32,8.87,1.98,-0.09,-0.43,-0.68,1379.94,1500.99,1,12,1
4.14,9.05,1.6,-0.12,-0.23,-1.18,1450.85,1563.62,1,12,1
2.46,8.83,1.94,-0.08,-0.05,-1.64,1355.58,1479.91,1,12,1
0.98,8.75,1.2,-0.08,0.44,-2.14,1170.13,1335.7,0,13,1
-0.96,7.53,1.1,0.02,0.64,-2.58,954.21,1133.32,0,13,1
-6.33,5.36,0.8,0.43,0.5,-2.78,858.41,974.85,0,13,1
-6.1,6.36,0.02,0.42,-1.36,-2.34,730.88,792.56,0,13,1
-8.31,1.92,1.62,0.19,-0.4,-3.03,508.89,558.65,0,13,1
-11.07,-3.45,2.03,0.19,0.52,-3.12,415.96,455.22,0,13,1
-14.59,0.84,0.71,-0.15,0.2,0.03,314.0,338.26,0,13,1
-10.46,-0.58,1.28,-0.03,0.59,-0.11,0.0,356.45,0,13,1
-8.7,-0.23,1.41,-0.11,-0.22,0.15,0.0,349.59,0,13,1
-9.16,-0.43,1.5,-0.13,0.16,0.29,0.0,0.0,0,13,1
-11.63,-0.19,1.12,-0.25,0.14,1.29,0.0,0.0,0,13,1
-11.92,-0.58,1.14,-0.51,0.03,2.73,0.0,0.0,0,13,1
-9.15,2.56,1.03,-0.72,0.48,3.51,0.0,379.59,0,13,1
-6.15,5.08,1.52,-0.76,0.53,3.27,326.54,406.2,0,13,1
-1.98,6.93,1.68,-0.41,0.39,2.8,383.82,488.61,0,13,1
0.74,7.81,2.14,-0.26,-0.27,2.33,551.53,668.03,0,13,1
2.46,8.68,3.14,0.04,-0.46,1.74,661.79,825.59,0,13,1
6.09,9.75,1.91,0.1,-0.07,0.88,580.34,699.16,0,13,1
4.39,9.35,1.51,-0.21,0.15,-0.06,611.19,776.74,0,13,1
1.58,8.74,2.27,-0.14,0.07,0.07,604.75,687.83,0,13,1
3.38,9.04,1.84,-0.02,0.04,0.04,646.96,789.18,0,13,1
2.44,9.11,2.21,-0.06,0.01,0.03,625.33,691.14,0,13,1
2.74,9.18,2.05,-0.03,-0.02,0.08,688.28,789.62,0,13,1
2.76,9.12,1.9,-0.04,-0.02,0.05,627.8,718.8,0,13,1
2.97,9.04,1.83,-0.06,-0.04,-0.0,637.51,749.74,0,13,1
3.63,9.19,1.78,-0.07,-0.1,-0.14,694.61,808.02,0,13,1
3.84,9.22,1.95,-0.1,-0.36,-0.52,712.23,826.18,0,13,1
2.89,9.26,1.92,-0.15,-0.02,-1.02,764.31,908.24,0,13,1
2.14,9.6,1.39,-0.11,-0.31,-1.3,813.93,964.79,0,13,1
0.79,8.93,1.61,-0.26,-0.12,-1.68,795.74,896.47,0,13,1
-1.06,7.36,2.43,-0.39,0.05,-2.24,698.21,755.72,0,13,1
-2.76,6.35,2.44,-0.15,0.44,-3.03,597.62,656.57,0,13,1
-6.87,2.64,2.9,0.32,0.56,-3.55,496.51,573.79,0,13,1
-8.69,-2.19,1.94,0.16,-0.48,-3.82,433.44,476.6,0,13,1
-13.41,1.06,0.57,0.22,1.36,-0.79,346.65,382.56,0,13,1
-9.12,-0.06,1.63,-0.14,-0.98,-0.07,0.0,342.95,0,13,1
-9.52,0.4,2.35,-0.12,-0.28,0.16,0.0,325.91,0,13,1
-8.73,0.51,2.04,-0.07,0.1,0.32,0.0,0.0,0,13,1
-10.39,0.19,1.68,-0.16,0.43,0.56,0.0,0.0,0,13,1
-11.18,0.39,2.01,-0.29,0.12,1.78,0.0,0.0,0,13,1
-10.59,1.17,2.45,-0.23,0.17,2.74,0.0,0.0,0,13,1
-6.12,4.69,1.62,-0.27,0.28,3.02,0.0,333.71,0,13,1
-5.23,6.27,1.69,-0.3,0.88,2.66,431.93,563.56,0,13,1
-2.8,7.71,1.83,-0.33,-0.03,2.62,409.47,517.04,0,13,1
-0.85,8.16,2.66,-0.16,-0.71,2.49,564.04,724.7,0,13,1
3.21,8.57,2.15,0.21,-0.45,2.17,762.9,938.02,0,13,1
7.1,8.39,1.52,0.14,-0.11,1.38,1209.77,1557.19,1,13,1
4.6,8.84,1.63,-0.04,0.2,-0.06,1352.27,1700.19,1,13,1
3.42,8.74,2.09,-0.15,-0.0,-0.01,1329.62,1574.32,1,13,1
3.77,8.67,2.14,-0.06,0.11,-0.02,1243.17,1449.99,1,13,1
3.72,8.71,2.01,-0.07,0.04,-0.06,1296.28,1438.03,1,13,1
3.61,8.83,2.02,-0.1,0.01,-0.05,1305.3,1439.31,1,13,1
5.07,8.93,1.95,-0.12,-0.18,-0.28,1296.12,1418.91,1,13,1
4.92,9.01,2.21,-0.2,-0.36,-0.81,1316.99,1462.93,1,13,1
3.9,8.8,2.22,-0.23,-0.13,-1.56,1391.3,1512.06,1,13,1
2.23,8.25,1.95,-0.27,0.22,-2.33,1168.62,1298.79,0,14,1
-1.82,7.35,2.69,-0.12,0.03,-2.84,891.92,1051.45,0,14,1
-5.96,6.05,3.86,0.0,-0.62,-2.92,753.43,898.75,0,14,1
-6.41,3.54,1.97,0.15,-0.07,-3.01,633.57,717.06,0,14,1
-7.45,-0.07,1.38,0.02,-0.49,-3.22,583.36,659.68,0,14,1
-13.2,0.98,1.69,0.06,1.02,-0.84,481.2,540.58,0,14,1
-8.41,0.9,2.85,-0.07,-0.18,-0.25,401.22,476.48,0,14,1
-9.45,1.07,3.05,-0.09,-0.04,-0.03,0.0,318.14,0,14,1
-9.33,0.71,2.75,-0.05,0.21,0.21,0.0,393.04,0,14,1
-11.96,0.82,2.69,-0.05,0.26,1.41,0.0,0.0,0,14,1
-10.69,1.18,2.6,0.05,0.35,2.68,0.0,0.0,0,14,1
-7.21,4.98,1.61,-0.05,0.15,3.19,0.0,0.0,0,14,1
-4.72,5.46,2.11,-0.1,0.15,2.98,362.26,456.64,0,14,1
-2.5,7.66,2.1,-0.05,0.13,2.82,593.08,713.22,0,14,1
0.76,7.78,2.28,0.09,0.33,2.51,768.64,985.81,0,14,1
3.96,8.43,1.36,0.2,0.3,2.05,1805.92,2121.27,1,14,1
4.6,8.03,1.76,-0.18,0.25,-0.17,1752.66,1898.74,1,14,1
4.77,8.17,1.39,-0.13,0.19,-0.04,1508.94,1578.1,1,14,1
5.22,8.37,1.3,-0.04,0.13,-0.01,1303.94,1410.03,1,14,1
5.23,8.5,1.27,-0.08,-0.01,-0.06,1213.7,1335.85,1,14,1
5.21,8.56,1.22,-0.09,0.01,-0.11,1159.18,1300.98,0,15,1
5.98,8.17,1.15,-0.14,-0.22,-0.31,1158.93,1322.62,0,15,1
7.09,8.49,1.05,-0.26,0.03,-1.28,1179.2,1349.46,0,15,1
4.4,8.36,2.02,-0.27,0.11,-2.19,1282.35,1449.12,1,15,1
1.61,8.07,1.78,-0.18,0.28,-2.64,1385.56,1552.6,1,15,1
-0.7,7.03,0.84,-0.32,-0.08,-2.96,1432.84,1626.93,1,15,1
-5.93,4.38,3.07,-0.33,0.2,-3.13,1167.3,1280.73,0,16,1
-6.51,2.31,3.05,-0.23,0.02,-3.26,825.19,918.8,0,16,1
-10.8,-1.55,2.4,0.02,0.5,-2.95,661.75,797.35,0,16,1
-12.32,1.65,2.38,-0.18,-0.81,-0.21,743.98,918.2,0,16,1
-11.66,0.36,2.79,-0.06,0.14,-0.15,580.38,641.26,0,16,1
-9.69,0.64,2.68,-0.08,-0.2,0.16,503.64,550.23,0,16,1
-9.09,0.67,2.39,-0.07,0.13,0.27,370.78,425.9,0,16,1
-11.06,1.22,2.51,-0.08,-0.03,1.21,0.0,0.0,0,16,1
-11.12,2.21,3.08,-0.01,-0.05,2.05,0.0,0.0,0,16,1
-9.26,2.95,2.86,0.12,-0.04,2.84,0.0,0.0,0,16,1
-6.04,4.54,2.1,0.07,-0.01,3.22,306.12,372.74,0,16,1
-3.41,6.42,2.34,0.07,0.01,3.13,442.41,538.91,0,16,1
0.04,6.87,2.35,0.18,0.36,2.87,730.9,920.51,0,16,1
2.44,7.37,2.46,0.29,0.16,2.88,1674.09,2039.52,1,16,1
5.62,7.1,1.07,-0.29,0.09,-0.3,1565.18,1805.28,1,16,1
6.53,6.93,1.62,-0.07,-0.01,0.21,1414.68,1551.24,1,16,1
7.37,7.19,0.89,-0.04,0.0,-0.04,1264.85,1393.77,1,16,1
6.45,7.22,1.87,-0.09,-0.02,-0.0,1171.08,1332.05,0,17,1
7.24,7.33,1.41,-0.06,-0.1,-0.16,1160.14,1309.32,0,17,1
9.96,7.45,0.57,-0.3,-0.33,-0.89,1215.99,1351.26,1,17,1
7.49,6.95,1.1,-0.49,0.3,-2.38,1219.44,1367.59,1,17,1
3.23,6.96,2.17,-0.26,0.19,-2.99,1497.61,1637.86,1,17,1
-0.72,7.53,0.19,-0.31,0.13,-3.26,1373.22,1550.57,1,17,1
-3.49,6.06,1.7,-0.41,-0.55,-3.35,1178.12,1353.81,0,18,1
-6.65,3.68,2.35,-0.41,-0.09,-3.64,1097.71,1194.54,0,18,1
-9.24,-2.5,2.64,0.06,0.72,-3.8,823.97,920.63,0,18,1
-14.38,2.19,1.37,0.12,-0.05,-0.79,658.27,808.47,0,18,1
-11.09,0.06,1.86,-0.04,0.28,-0.42,567.08,681.06,0,18,1
-9.86,0.36,2.12,-0.12,-0.01,0.03,565.15,689.62,0,18,1
-9.5,0.38,1.82,-0.11,0.24,0.21,414.7,485.05,0,18,1
-12.29,0.57,2.06,-0.14,0.14,1.3,0.0,0.0,0,18,1
-12.7,1.04,2.04,-0.04,0.17,2.47,0.0,0.0,0,18,1
-9.39,2.67,1.95,0.05,-0.09,3.72,0.0,0.0,0,18,1
-5.04,4.29,1.75,0.03,-0.15,4.0,360.87,454.11,0,18,1
0.22,6.19,1.57,0.19,-0.08,3.64,604.13,796.4,0,18,1
3.34,6.89,1.13,0.39,0.1,3.15,1472.86,1877.62,1,18,1
10.04,6.78,0.59,-0.11,0.56,0.09,1777.47,2008.92,1,18,1
5.73,7.09,1.63,-0.18,-0.0,0.03,1438.67,1581.66,1,18,1
7.69,6.84,1.01,0.02,-0.18,0.02,1303.24,1401.67,1,18,1
6.39,7.06,1.3,-0.06,-0.17,-0.11,1176.0,1273.33,0,19,1
6.89,7.23,1.21,-0.02,-0.04,-0.02,1201.72,1302.35,1,19,1
6.68,7.17,1.13,-0.1,-0.05,-0.03,1141.07,1249.05,0,20,1
6.39,7.32,1.28,-0.12,0.33,-0.09,1144.35,1261.82,0,20,1
8.76,7.33,0.86,-0.11,-0.12,-0.37,1158.94,1286.2,0,20,1
8.94,7.26,0.82,-0.38,-0.16,-1.54,1240.91,1375.47,1,20,1
4.85,7.51,1.77,-0.34,0.19,-2.48,1285.72,1429.42,1,20,1
1.67,7.31,1.71,-0.21,0.18,-2.92,1392.83,1525.27,1,20,1
-1.73,7.08,1.84,-0.19,-0.62,-2.81,1325.25,1504.8,1,20,1
-2.83,6.54,1.55,-0.08,-0.27,-2.73,1140.47,1324.46,0,21,1
-4.58,4.92,1.21,-0.21,-0.1,-2.93,947.24,1071.22,0,21,1
-6.48,1.64,1.67,-0.23,-0.02,-3.19,780.5,851.16,0,21,1
-9.56,-1.84,1.94,-0.02,0.66,-3.06,698.83,845.86,0,21,1
-14.49,0.63,1.49,-0.04,0.17,-0.4,620.68,842.11,0,21,1
-12.23,-0.5,1.33,-0.09,0.12,-0.0,462.35,542.11,0,21,1
-9.61,-0.17,1.34,-0.09,0.22,0.22,477.45,585.45,0,21,1
-11.54,0.03,1.39,-0.08,0.51,0.74,0.0,308.88,0,21,1
-12.29,0.42,1.4,-0.08,0.49,1.8,0.0,0.0,0,21,1
-11.05,1.28,1.21,-0.07,-0.16,3.5,0.0,0.0,0,21,1
-7.3,3.74,1.03,-0.03,0.04,3.95,0.0,0.0,0,21,1
-3.43,5.05,0.53,-0.07,-0.02,3.71,394.06,488.09,0,21,1
-0.67,6.4,1.94,0.16,0.04,3.5,1297.12,1729.89,1,21,1
8.79,7.75,-0.69,-0.04,-0.03,0.3,1297.9,1624.32,1,21,1
6.14,7.63,0.32,-0.16,-0.16,0.05,1247.21,1525.84,1,21,1
6.77,7.69,0.15,-0.08,-0.14,0.02,1028.27,1162.45,0,22,1
6.13,7.65,0.43,-0.11,-0.03,-0.04,1165.52,1376.94,0,22,1
7.09,7.75,0.05,-0.05,0.02,-0.19,1292.61,1461.35,1,22,1
8.42,8.08,-0.19,-0.21,-0.26,-0.58,1281.92,1464.42,1,22,1
7.57,8.2,-0.24,-0.4,-0.14,-1.28,1238.71,1387.63,1,22,1
6.07,8.41,-0.14,-0.34,0.43,-1.89,1054.97,1176.31,0,23,1
2.75,8.45,0.58,-0.27,-0.01,-2.23,880.31,1022.42,0,23,1
-2.75,8.39,1.81,-0.12,0.23,-2.17,874.51,997.13,0,23,1
-3.89,7.87,1.51,-0.05,0.33,-1.84,861.58,969.94,0,23,1
-4.28,7.51,1.11,-0.01,0.26,-1.8,720.28,827.64,0,23,1
-4.79,6.18,1.22,-0.14,-0.15,-2.08,644.26,721.84,0,23,1
-6.54,3.84,1.62,-0.06,0.26,-2.62,474.82,553.03,0,23,1
-9.24,-0.62,1.24,0.13,0.32,-3.09,464.83,510.54,0,23,1
-13.31,-0.39,-0.05,0.19,0.67,-1.75,356.59,389.95,0,23,1
-10.99,-0.23,0.25,-0.2,-0.88,-0.07,497.8,768.64,0,23,1
-9.95,-0.14,0.96,-0.08,-0.08,0.06,411.98,590.41,0,23,1
-8.9,-0.28,0.88,-0.02,0.18,0.09,0.0,307.7,0,23,1
-10.42,-0.06,0.63,-0.05,0.48,0.2,0.0,0.0,0,23,1
-12.59,0.33,0.98,-0.13,0.36,1.28,0.0,0.0,0,23,1
-12.94,1.1,0.57,-0.15,0.44,2.6,0.0,0.0,0,23,1
-8.76,2.2,0.47,-0.14,0.11,3.84,0.0,0.0,0,23,1
-4.41,5.48,0.1,-0.35,1.01,3.7,301.46,383.85,0,23,1
-1.59,6.16,0.4,-0.21,0.46,3.45,687.45,907.21,0,23,1
1.44,6.82,0.9,-0.07,-0.42,3.26,1432.87,1835.72,1,23,1
6.84,8.03,0.49,-0.11,0.02,-0.03,1291.64,1529.73,1,23,1
6.73,8.27,0.05,-0.14,-0.04,0.04,1017.52,1218.52,0,24,1
6.71,7.8,0.53,-0.12,0.09,-0.09,1047.91,1231.72,0,24,1
5.92,8.02,0.82,-0.12,0.0,-0.29,1194.55,1351.55,0,24,1
6.5,8.27,0.89,-0.12,-0.06,-0.77,1155.03,1304.04,0,24,1
5.93,8.71,0.13,-0.26,-0.2,-1.33,1039.43,1179.71,0,24,1
2.7,8.8,1.05,-0.2,-0.25,-1.67,986.72,1122.24,0,24,1
0.07,9.13,1.27,-0.08,-0.34,-1.6,867.73,993.83,0,24,1
0.34,9.08,0.15,-0.19,0.06,-1.82,741.69,861.47,0,24,1
-2.64,7.95,1.48,-0.24,-0.08,-1.92,714.53,845.13,0,24,1
-3.95,7.19,1.63,-0.13,-0.1,-1.91,606.56,693.38,0,24,1
-3.87,6.28,1.78,-0.12,-0.0,-2.47,536.5,618.67,0,24,1
-7.68,1.12,2.47,0.15,0.78,-3.2,485.64,533.64,0,24,1
-8.16,-1.31,1.24,0.09,-0.34,-3.48,393.18,463.81,0,24,1
-16.66,0.98,0.3,0.18,0.52,-0.57,398.24,515.09,0,24,1
-11.27,-0.89,0.46,-0.01,0.1,-0.1,435.87,586.26,0,24,1
-9.39,-0.23,0.76,-0.05,0.04,0.13,491.9,635.65,0,24,1
-9.29,-0.44,0.8,-0.07,0.09,0.04,352.23,443.43,0,24,1
-10.53,-0.42,0.86,-0.13,0.22,0.29,0.0,353.93,0,24,1
-12.39,0.33,0.74,-0.15,0.0,1.6,0.0,0.0,0,24,1
-12.84,-0.37,0.9,-0.2,-0.05,3.38,0.0,0.0,0,24,1
-7.25,1.98,0.71,-0.14,-0.06,4.28,0.0,0.0,0,24,1
-2.76,4.48,1.21,-0.14,-0.27,3.85,375.13,503.61,0,24,1
-0.17,6.64,0.48,0.1,0.1,3.36,909.05,1276.08,0,24,1
4.97,7.36,0.53,0.24,0.23,2.91,1509.71,1929.52,1,24,1
4.27,7.64,0.92,-0.3,-0.15,0.07,1437.5,1717.81,1,24,1
6.73,7.58,0.47,0.07,-0.21,0.17,1374.85,1570.47,1,24,1
6.34,7.67,0.1,-0.2,-0.02,0.01,1420.84,1570.81,1,24,1
6.74,7.49,0.98,-0.05,-0.04,-0.01,1368.39,1515.91,1,24,1
9.99,8.33,-0.63,-0.42,-0.25,-0.99,1372.44,1505.01,1,24,1
5.45,8.27,1.13,-0.26,0.07,-1.54,1344.04,1493.96,1,24,1
4.15,8.29,0.62,-0.12,0.22,-2.0,1083.06,1245.11,0,25,1
1.21,8.22,1.17,-0.22,0.22,-2.26,956.11,1124.12,0,25,1
-1.88,7.6,2.01,-0.22,0.3,-2.37,944.41,1048.08,0,25,1
-4.18,6.53,1.8,0.06,-0.2,-2.81,823.9,945.05,0,25,1
-5.74,3.8,1.73,-0.02,-0.18,-3.13,670.61,765.09,0,25,1
-7.35,1.57,1.17,-0.03,-0.36,-3.46,609.34,701.96,0,25,1
-12.3,-1.36,1.8,0.06,0.18,-2.97,517.82,606.39,0,25,1
-13.61,0.04,1.48,-0.13,-0.69,-0.37,451.71,519.71,0,25,1
-11.69,-0.07,1.47,-0.13,-0.19,0.15,379.48,430.83,0,25,1
-9.3,0.24,1.42,-0.08,-0.18,0.34,334.33,375.06,0,25,1
-8.93,0.09,1.53,-0.11,0.18,0.23,0.0,0.0,0,25,1
-11.35,0.61,1.64,-0.15,0.24,0.94,0.0,0.0,0,25,1
-11.91,1.33,2.2,-0.08,0.15,1.93,0.0,0.0,0,25,1
-11.12,2.57,0.99,-0.06,0.39,3.18,0.0,0.0,0,25,1
-7.46,3.63,1.19,-0.14,0.14,4.07,0.0,315.32,0,25,1
-1.38,4.81,1.61,0.14,0.1,3.98,582.57,809.16,0,25,1
2.3,6.57,0.79,0.26,0.56,3.37,1347.97,1794.04,1,25,1
4.1,8.48,0.39,-0.32,0.21,-0.31,1599.75,1934.33,1,25,1
6.39,7.72,1.44,-0.03,-0.23,0.35,1372.94,1603.64,1,25,1
5.67,7.95,0.67,-0.12,-0.16,0.02,1425.86,1568.69,1,25,1
5.96,7.74,1.3,-0.12,-0.18,0.15,1349.8,1477.54,1,25,1
8.24,7.95,0.55,-0.16,-0.31,-0.44,1311.21,1463.83,1,25,1
7.13,8.2,0.88,-0.24,-0.1,-1.21,1334.71,1460.14,1,25,1
4.46,8.05,1.4,-0.09,0.55,-1.99,1388.13,1525.22,1,25,1
0.94,8.03,1.07,-0.06,0.55,-2.29,1285.05,1435.07,1,25,1
-1.1,7.67,1.51,-0.26,-0.38,-2.22,1174.69,1341.68,0,26,1
-2.6,7.87,1.85,-0.26,0.19,-2.24,1017.34,1170.13,0,26,1
-3.98,6.78,1.52,-0.24,0.06,-2.59,810.03,941.75,0,26,1
-5.41,3.52,2.19,-0.14,-0.13,-3.08,724.32,805.96,0,26,1
-7.85,-0.17,1.75,-0.07,-0.04,-3.5,616.08,669.12,0,26,1
-16.0,1.22,0.54,0.19,1.36,-1.18,478.86,556.94,0,26,1
-10.85,0.12,1.3,-0.09,0.03,-0.2,466.99,532.47,0,26,1
-9.81,0.9,1.68,-0.12,-0.27,0.16,339.58,400.78,0,26,1
-9.05,0.54,1.48,-0.07,0.01,0.32,0.0,317.46,0,26,1
-9.92,1.04,0.98,-0.12,0.04,0.39,0.0,0.0,0,26,1
-12.13,1.44,1.58,-0.17,-0.14,1.53,0.0,0.0,0,26,1
-11.41,1.84,2.33,0.11,0.02,2.67,0.0,0.0,0,26,1
-8.83,3.41,1.54,0.14,-0.16,3.33,0.0,300.84,0,26,1
-4.22,5.79,0.42,0.1,-0.3,3.7,387.32,532.74,0,26,1
0.82,6.5,1.0,0.13,-0.31,3.29,678.46,909.51,0,26,1
2.07,7.11,0.62,0.22,-0.08,2.85,1428.54,1828.54,1,26,1
4.94,7.67,0.99,-0.22,0.38,-0.08,1563.62,1848.2,1,26,1
6.39,7.5,1.02,-0.03,0.09,0.15,1427.0,1638.97,1,26,1
6.22,7.86,0.51,-0.1,-0.0,-0.07,1354.84,1539.27,1,26,1
6.85,7.96,1.18,-0.12,-0.16,-0.14,1334.35,1489.26,1,26,1
8.51,8.28,0.09,-0.22,-0.22,-0.75,1358.23,1513.8,1,26,1
8.13,7.72,0.36,-0.45,0.3,-1.92,1392.03,1528.23,1,26,1
3.3,7.21,1.36,-0.3,0.45,-2.46,1387.67,1518.62,1,26,1
-0.15,7.53,1.66,-0.2,0.24,-2.58,1240.81,1395.79,1,26,1
-3.17,7.54,2.25,-0.21,-0.04,-2.6,1065.68,1199.23,0,27,1
-4.99,6.46,1.89,-0.06,-0.55,-2.53,937.8,1108.41,0,27,1
-5.77,4.48,1.19,0.01,-0.32,-2.43,807.15,884.82,0,27,1
-5.35,2.14,1.37,-0.08,0.12,-3.05,544.22,609.77,0,27,1
-10.88,-1.7,1.48,0.15,0.14,-3.21,467.69,550.52,0,27,1
-14.71,0.51,0.63,-0.18,-1.02,-0.25,393.1,455.75,0,27,1
-12.01,-0.42,1.19,-0.17,-0.33,0.31,338.2,380.94,0,27,1
-9.08,0.2,1.27,-0.14,-0.38,0.38,315.07,373.15,0,27,1
-10.25,0.22,1.38,-0.16,0.03,0.77,0.0,0.0,0,27,1
-10.87,0.75,1.72,-0.18,0.05,1.79,0.0,0.0,0,27,1
-10.11,2.29,1.83,-0.13,0.02,2.85,0.0,0.0,0,27,1
-7.74,4.13,1.21,-0.01,0.36,3.47,0.0,349.1,0,27,1
-3.85,6.24,0.52,0.01,0.83,3.07,453.35,625.78,0,27,1
0.14,7.73,0.59,-0.27,-0.15,2.69,1026.04,1427.53,1,27,1
13.88,8.17,-0.71,0.03,-0.18,1.09,1803.4,2106.15,1,27,1
2.12,8.77,0.54,-0.55,0.45,-0.56,1470.6,1703.6,1,27,1
6.03,8.37,2.06,-0.24,-0.14,0.26,1380.04,1530.79,1,27,1
4.63,8.53,0.78,-0.55,-0.02,-0.03,1310.25,1436.26,1,27,1
5.05,7.93,1.95,-0.36,-0.09,0.1,1256.61,1378.87,1,27,1
5.01,7.77,1.84,-0.29,0.2,-0.05,1212.69,1358.56,1,27,1
4.4,7.96,2.3,-0.15,0.27,-0.07,1214.15,1333.64,1,27,1
4.78,8.47,2.91,-0.13,0.22,0.0,1195.05,1336.98,0,28,1
4.09,8.16,3.34,-0.1,0.18,0.05,1175.86,1348.37,0,28,1
4.45,7.86,3.01,-0.09,0.09,0.03,1133.27,1307.78,0,28,1
4.56,8.0,2.9,-0.1,0.11,-0.01,1196.29,1348.94,0,28,1
0.75,9.45,1.71,-0.07,0.02,0.01,0.0,0.0,0,0,1
0.46,9.66,1.77,-0.05,0.09,-0.01,0.0,0.0,0,0,1
0.29,9.76,1.9,-0.01,0.06,0.08,0.0,0.0,0,0,1
0.57,10.03,1.35,0.11,0.13,0.07,0.0,0.0,0,0,1
0.56,10.7,1.59,0.09,0.08,0.11,0.0,0.0,0,0,1
1.64,12.35,1.27,-0.01,-0.44,-0.02,0.0,0.0,0,0,1
2.08,13.56,0.76,-0.25,-0.11,-0.18,0.0,0.0,0,0,1
0.9,11.55,1.3,-0.21,-0.63,-0.54,0.0,0.0,0,0,1
0.82,8.69,0.75,-0.24,-0.43,-1.24,0.0,433.67,0,0,1
-0.62,4.92,0.94,-0.29,-0.28,-1.86,443.7,656.54,0,0,1
-3.2,4.72,2.33,-0.19,-0.6,-1.23,710.07,1084.93,0,0,1
-3.31,6.34,1.79,0.18,0.25,-0.46,434.21,587.46,0,0,1
-2.87,7.2,1.6,-0.02,0.15,0.2,427.57,499.11,0,0,1
-3.28,5.91,1.34,0.18,1.06,0.97,328.16,368.7,0,0,1
-2.82,6.22,1.25,0.0,0.75,1.57,307.12,345.4,0,0,1
-1.07,8.61,0.17,-0.2,0.89,1.19,300.0,330.63,0,0,1
-1.01,9.95,1.3,-0.67,-0.01,0.71,0.0,325.09,0,0,1
1.02,11.89,0.91,-0.28,0.34,0.27,0.0,348.16,0,0,1
0.23,11.59,1.78,-0.56,-0.2,0.19,0.0,0.0,0,0,1
1.75,11.12,2.24,-0.07,-0.04,0.11,0.0,0.0,0,0,1
0.44,10.56,2.54,0.11,0.53,0.1,0.0,309.92,0,0,1
1.35,9.89,1.53,0.2,0.33,0.15,0.0,0.0,0,0,1
1.59,9.67,0.95,0.09,-0.17,-0.01,0.0,0.0,0,0,1
1.29,10.37,1.13,-0.09,0.01,-0.15,0.0,0.0,0,0,1
1.36,12.51,1.66,-0.19,0.19,-0.25,0.0,0.0,0,0,1
0.76,12.9,1.83,0.03,-0.22,-0.29,0.0,0.0,0,0,1
-0.68,11.41,0.85,0.19,-0.41,-0.54,0.0,0.0,0,0,1
-2.5,8.88,0.24,0.26,-0.33,-1.05,0.0,329.88,0,0,1
-2.62,6.67,0.26,-0.04,-0.81,-1.5,0.0,370.46,0,0,1
-2.86,4.75,1.13,-0.14,-0.29,-1.88,388.45,577.8,0,0,1
-5.25,5.74,1.78,0.07,-1.19,-1.09,401.52,574.54,0,0,1
-4.05,7.17,1.62,-0.09,-0.31,0.21,493.65,714.77,0,0,1
-3.18,7.31,2.33,-0.16,-0.08,0.35,0.0,320.26,0,0,1
-3.61,5.88,1.8,-0.18,0.45,1.12,0.0,334.18,0,0,1
-3.17,6.63,1.56,-0.13,0.28,1.66,310.72,382.43,0,0,1
-1.13,7.21,2.51,-0.04,0.99,1.53,0.0,355.28,0,0,1
-1.58,10.38,0.48,-0.18,0.47,0.91,0.0,321.74,0,0,1
-0.14,9.71,2.22,-0.42,-0.12,0.46,306.5,338.37,0,0,1
-0.51,11.57,2.16,-0.37,0.12,0.08,0.0,302.95,0,0,1
-0.67,10.15,2.74,-0.06,-0.12,0.05,0.0,0.0,0,0,1
0.19,10.7,1.51,0.11,-0.02,0.11,0.0,0.0,0,0,1
1.5,11.26,2.02,0.2,-0.09,0.21,0.0,0.0,0,0,1
1.31,10.35,2.03,0.07,0.32,0.16,0.0,0.0,0,0,1
0.55,9.77,1.6,0.06,0.16,0.11,0.0,0.0,0,0,1
0.44,9.68,1.39,-0.13,0.02,0.05,0.0,0.0,0,0,1
1.04,10.45,1.9,-0.08,-0.02,-0.03,0.0,0.0,0,0,1
0.74,11.4,1.94,0.04,-0.08,0.06,0.0,0.0,0,0,1
0.37,12.56,1.57,0.14,-0.17,0.13,0.0,0.0,0,0,1
0.5,12.04,0.76,0.11,0.34,-0.15,0.0,0.0,0,0,1
-1.65,9.9,1.94,0.05,-0.83,-0.61,0.0,364.13,0,0,1
-1.06,8.5,1.96,0.28,-0.75,-1.08,0.0,353.46,0,0,1
-1.23,5.94,0.45,-0.07,-0.45,-1.64,0.0,334.22,0,0,1
-2.47,5.13,0.4,-0.15,-0.32,-1.51,564.23,855.4,0,0,1
-3.71,6.87,1.38,0.21,0.8,-0.45,484.33,735.24,0,0,1
-4.68,8.22,0.72,-0.05,-0.06,0.02,542.23,817.71,0,0,1
-4.42,7.17,1.13,-0.26,0.05,0.51,397.64,477.54,0,0,1
-3.6,7.14,1.36,-0.44,0.23,1.32,0.0,321.53,0,0,1
-2.85,7.21,2.04,-0.38,0.52,1.62,360.23,435.58,0,0,1
-1.39,8.56,1.83,0.11,1.11,1.58,0.0,341.73,0,0,1
-0.75,9.98,1.1,-0.21,0.28,1.27,321.65,378.88,0,0,1
1.14,10.74,1.6,-0.28,0.06,0.67,408.05,488.75,0,0,1
2.0,11.31,1.13,-0.16,0.13,0.11,364.88,421.2,0,0,1
1.72,10.63,1.25,-0.15,-0.32,-0.45,0.0,323.44,0,0,1
0.11,10.79,1.79,0.26,-0.9,-0.57,314.65,373.65,0,0,1
1.18,11.68,1.18,0.15,-0.87,-0.17,0.0,0.0,0,0,1
1.75,10.89,0.73,0.17,0.54,-0.03,0.0,350.44,0,0,1
0.91,9.9,0.63,-0.05,0.04,0.05,0.0,356.88,0,0,1
0.7,10.24,0.84,-0.13,0.01,0.06,0.0,0.0,0,0,1
1.02,11.93,0.89,-0.09,0.08,0.06,0.0,0.0,0,0,1
1.9,13.14,0.59,-0.2,-0.21,-0.05,409.21,629.86,0,0,1
-0.11,10.59,2.26,-0.22,0.2,-0.76,0.0,300.93,0,0,1
-2.4,8.75,1.72,-0.03,-0.67,-0.98,429.16,583.49,0,0,1
-2.3,7.76,1.83,0.17,-0.69,-1.32,428.35,538.87,0,0,1
-2.13,5.54,1.27,0.03,-0.38,-1.79,484.41,631.3,0,0,1
-4.45,4.76,2.15,0.0,-0.65,-1.86,429.71,549.92,0,0,1
-6.73,6.67,1.5,-0.02,0.33,-0.07,565.58,836.16,0,0,1
-5.34,7.41,1.97,-0.07,0.21,0.18,478.15,784.85,0,0,1
-5.58,6.48,1.26,-0.34,0.05,0.68,386.33,455.13,0,0,1
-4.88,6.16,2.08,-0.27,0.45,1.34,0.0,322.37,0,0,1
-3.77,8.25,1.58,-0.01,0.37,1.44,0.0,317.96,0,0,1
-1.7,8.26,1.04,-0.03,0.7,1.28,309.97,391.27,0,0,1
-0.64,9.4,0.53,-0.08,0.01,1.11,0.0,349.26,0,0,1
0.04,9.0,0.51,-0.11,0.19,0.87,0.0,353.11,0,0,1
0.74,9.34,0.78,-0.19,0.08,0.39,0.0,301.1,0,0,1
1.8,10.84,1.91,-0.17,0.41,0.07,0.0,0.0,0,0,1
1.04,10.15,1.98,0.16,0.27,-0.45,0.0,340.6,0,0,1
0.23,11.35,1.43,0.35,0.24,-0.34,0.0,324.89,0,0,1
0.53,10.93,0.57,-0.06,0.08,0.07,0.0,0.0,0,0,1
-0.13,9.59,0.97,-0.07,0.14,0.04,0.0,0.0,0,0,1
0.23,10.02,0.71,-0.08,0.01,0.09,0.0,0.0,0,0,1
1.27,11.51,0.93,-0.09,0.01,-0.03,0.0,0.0,0,0,1
0.46,11.76,1.38,-0.13,-0.06,-0.05,365.69,571.77,0,0,1
-0.49,11.99,1.16,-0.1,0.25,-0.15,0.0,424.04,0,0,1
-1.82,9.78,0.13,0.02,0.37,-0.43,327.52,541.72,0,0,1
-1.9,7.99,0.6,-0.07,-0.26,-0.79,388.01,479.21,0,0,1
-1.58,8.25,0.96,0.02,-0.58,-1.13,390.49,504.52,0,0,1
-3.85,6.58,1.66,-0.31,-0.71,-1.55,405.81,497.74,0,0,1
-2.43,6.48,1.93,0.08,-0.89,-1.2,352.98,444.23,0,0,1
-4.42,7.17,1.53,0.06,-0.08,-0.52,504.74,785.37,0,0,1
-4.92,7.13,1.81,-0.08,0.2,0.06,429.55,577.8,0,0,1
-4.21,6.98,1.4,-0.26,0.06,0.5,316.74,373.77,0,0,1
-3.13,5.96,1.87,-0.36,0.4,1.2,0.0,309.84,0,0,1
-3.44,7.41,2.1,-0.23,0.78,1.38,0.0,325.1,0,0,1
-2.66,8.03,2.23,-0.1,0.74,1.29,399.93,517.61,0,0,1
-2.18,8.47,1.78,-0.16,0.39,0.95,359.64,434.89,0,0,1
-1.14,9.07,1.28,0.03,0.02,1.07,352.87,406.01,0,0,1
0.86,9.73,1.12,-0.19,-0.22,0.8,0.0,350.68,0,0,1
2.15,9.62,2.18,-0.34,0.18,0.35,305.49,360.74,0,0,1
2.94,10.72,2.93,-0.05,-0.22,-0.34,314.73,377.75,0,0,1
0.7,10.75,1.23,0.05,0.19,-0.53,315.65,375.43,0,0,1
0.8,10.88,1.58,0.05,0.04,-0.18,0.0,338.24,0,0,1
0.01,10.33,1.75,0.15,0.12,-0.04,0.0,354.21,0,0,1
0.84,10.15,1.35,-0.09,-0.02,0.15,0.0,337.14,0,0,1
1.03,10.93,1.47,-0.03,0.13,0.14,0.0,326.84,0,0,1
1.15,11.26,1.57,-0.14,0.37,-0.02,0.0,0.0,0,0,1
-0.22,11.03,1.67,-0.16,0.05,-0.03,350.61,484.23,0,0,1
0.0,10.23,2.46,-0.05,-0.19,-0.51,307.45,432.54,0,0,1
-1.48,9.32,0.72,0.0,-0.4,-0.84,362.45,475.88,0,0,1
-2.59,8.28,1.79,-0.06,-0.57,-1.09,402.31,552.66,0,0,1
-1.78,8.18,1.69,0.02,-0.34,-1.33,460.03,592.71,0,0,1
-3.77,5.73,2.56,-0.38,-0.96,-1.67,420.46,573.12,0,0,1
-5.93,4.83,2.99,-0.16,-0.83,-1.68,647.35,943.71,0,0,1
-8.07,6.21,2.9,-0.22,-0.14,0.04,606.12,877.91,0,0,1
-5.71,6.52,3.43,-0.1,0.08,0.11,464.49,642.23,0,0,1
-6.11,5.93,2.92,-0.13,0.11,0.61,433.73,529.92,0,0,1
-4.29,6.15,2.93,-0.15,0.25,1.25,316.83,396.95,0,0,1
-2.99,4.62,2.35,-0.25,0.38,1.01,450.28,582.48,0,0,1
-4.43,7.9,2.3,0.07,0.41,1.3,396.54,523.6,0,0,1
-2.66,9.55,1.85,0.16,0.32,1.31,359.99,430.45,0,0,1
-1.01,9.81,1.68,0.02,-0.1,1.05,370.01,446.26,0,0,1
-0.01,10.53,1.19,0.04,-0.56,0.58,0.0,336.15,0,0,1
1.56,9.79,0.84,0.05,0.55,0.22,312.85,364.7,0,0,1
0.62,9.08,1.1,-0.12,0.5,-0.47,0.0,352.77,0,0,1
-1.08,10.1,1.53,-0.15,0.43,-0.55,0.0,0.0,0,0,1
1.68,11.44,1.69,0.11,0.36,-0.48,345.22,454.16,0,0,1
-1.02,11.41,1.2,0.15,-0.11,-0.15,0.0,310.03,0,0,1
-1.27,10.46,0.9,-0.11,-0.13,0.27,0.0,304.72,0,0,1
-0.58,10.06,1.97,-0.15,-0.07,0.2,0.0,326.46,0,0,1
-0.09,10.8,1.57,-0.08,-0.02,0.32,0.0,0.0,0,0,1
-0.08,11.55,1.46,-0.2,0.09,0.41,379.78,537.35,0,0,1
0.47,10.49,1.85,-0.27,-0.34,0.05,0.0,316.96,0,0,1
-1.7,10.18,1.85,-0.16,-0.14,-0.41,401.55,650.89,0,0,1
-0.98,8.15,2.05,0.07,-0.64,-0.78,334.43,476.75,0,0,1
-1.31,8.03,1.8,0.2,-0.21,-1.37,388.6,498.77,0,0,1
-2.56,7.17,1.3,-0.12,-0.08,-1.9,701.03,1079.45,0,0,1
-4.13,5.63,1.7,-0.13,-0.55,-1.47,463.15,591.01,0,0,1
-5.13,6.02,2.1,0.09,0.86,-0.9,526.23,657.81,0,0,1
-8.0,7.43,1.87,-0.11,-0.43,0.01,557.97,775.96,0,0,1
-6.84,5.62,1.75,-0.21,-0.06,0.54,378.44,446.85,0,0,1
-4.08,4.67,2.22,-0.37,-0.23,1.62,305.41,364.35,0,0,1
-3.21,5.9,3.0,-0.33,0.38,1.84,312.77,370.07,0,0,1
-2.51,8.27,2.56,-0.02,0.84,1.52,304.48,359.35,0,0,1
-1.77,8.08,2.48,0.02,0.37,1.0,347.9,408.65,0,0,1
0.17,9.79,2.09,-0.03,0.09,0.63,335.15,380.46,0,0,1
0.34,9.88,1.51,0.17,0.86,0.06,0.0,311.5,0,0,1
-1.57,9.93,1.31,0.42,0.39,-0.35,0.0,304.44,0,0,1
-1.57,11.02,0.19,0.21,-0.17,-0.28,0.0,312.52,0,0,1
-1.16,11.12,0.81,0.32,0.23,-0.14,0.0,0.0,0,0,1
-0.08,10.93,0.32,0.19,-0.21,0.19,0.0,0.0,0,0,1
0.47,10.81,0.01,-0.24,-0.23,0.19,0.0,0.0,0,0,1
-1.13,11.19,0.2,-0.24,0.17,0.2,0.0,320.35,0,0,1
-1.13,12.05,1.12,-0.34,-0.1,0.32,0.0,0.0,0,0,1
-0.62,10.8,1.82,-0.44,0.32,0.13,0.0,424.92,0,0,1
0.46,9.82,2.32,-0.2,0.33,-0.31,327.29,434.68,0,0,1
-1.9,8.63,2.31,0.08,0.13,-0.81,304.98,392.12,0,0,1
-4.28,7.79,1.96,0.14,-0.35,-1.12,387.27,560.92,0,0,1
-3.28,7.26,0.54,0.05,-0.72,-1.63,437.09,659.4,0,0,1
-4.06,4.91,2.92,-0.37,-1.17,-1.51,474.42,731.38,0,0,1
-6.95,5.54,3.67,-0.02,-0.75,-1.13,671.89,950.53,0,0,1
-4.69,5.81,2.95,0.02,0.11,-0.1,677.21,936.99,0,0,1
-6.58,6.89,2.47,-0.12,0.26,0.09,376.06,443.63,0,0,1
-5.96,6.74,3.03,-0.15,0.3,0.47,313.73,357.09,0,0,1
-5.17,6.36,2.5,-0.2,0.5,0.93,0.0,315.26,0,0,1
-4.47,5.88,2.72,-0.16,0.47,1.24,0.0,314.89,0,0,1
-3.68,7.78,1.88,0.09,0.88,1.42,327.28,399.31,0,0,1
-3.21,7.77,1.64,-0.05,0.91,1.34,308.55,363.48,0,0,1
-2.35,9.47,2.08,-0.14,-0.05,1.03,0.0,334.11,0,0,1
-1.25,10.13,2.09,-0.22,-0.14,0.62,303.54,342.39,0,0,1
-0.13,9.73,2.44,-0.48,-0.51,0.34,0.0,0.0,0,0,1
2.13,9.7,1.72,0.0,-0.97,0.07,0.0,0.0,0,0,1
0.47,10.36,2.18,-0.02,-0.39,-0.37,0.0,0.0,0,0,1
0.95,11.41,2.73,0.16,0.26,-0.39,313.35,404.65,0,0,1
-0.16,10.56,1.51,0.17,0.4,0.04,0.0,342.12,0,0,1
0.03,9.63,1.29,-0.09,0.35,0.15,0.0,0.0,0,0,1
0.46,10.83,2.03,-0.08,0.27,0.08,0.0,0.0,0,0,1
2.05,12.4,1.87,-0.16,0.09,0.01,324.09,427.54,0,0,1
-0.36,12.59,3.68,-0.03,-0.63,-0.31,0.0,0.0,0,0,1
-1.06,9.12,1.84,0.03,-0.33,-1.13,0.0,0.0,0,0,1
-3.0,6.27,0.53,-0.35,-0.01,-1.37,0.0,306.03,0,0,1
-2.57,5.41,2.33,-0.22,-0.06,-1.4,407.0,746.5,0,0,1
-2.57,5.29,1.9,-0.01,-0.13,-1.94,442.68,653.56,0,0,1
-8.13,4.12,2.71,0.08,-0.08,-1.44,603.78,873.31,0,0,1
-4.85,5.44,3.03,-0.27,-1.09,0.19,428.03,573.01,0,0,1
-5.19,6.34,2.97,-0.1,0.25,0.03,425.48,533.71,0,0,1
-5.95,5.99,3.01,-0.15,0.25,0.31,308.17,344.24,0,0,1
-6.51,4.56,2.91,-0.26,0.3,1.19,0.0,0.0,0,0,1
-5.13,4.07,3.66,-0.38,-0.02,1.62,328.99,382.81,0,0,1
-3.28,6.65,3.28,-0.06,0.42,1.46,0.0,317.66,0,0,1
-2.85,9.32,2.56,0.43,0.81,1.06,0.0,320.0,0,0,1
-2.24,10.48,0.57,0.08,0.46,0.57,0.0,308.38,0,0,1
-2.22,10.16,2.11,-0.15,-0.18,0.31,0.0,342.51,0,0,1
-1.84,10.92,1.71,-0.14,-0.01,0.39,0.0,0.0,0,0,1
-0.45,10.82,3.6,-0.18,-0.01,0.32,0.0,0.0,0,0,1
-0.91,10.34,3.2,-0.01,-0.12,0.22,0.0,342.17,0,0,1
-0.57,9.64,2.47,-0.01,-0.0,0.17,0.0,0.0,0,0,1
-0.27,9.35,2.09,-0.02,0.19,0.14,0.0,0.0,0,0,1
0.76,10.42,2.26,-0.02,0.04,0.04,0.0,0.0,0,0,1
-0.6,10.93,2.39,-0.05,0.32,-0.09,0.0,0.0,0,0,1
1.02,10.84,1.75,-0.03,0.12,-0.04,0.0,0.0,0,0,1
1.5,10.44,0.78,-0.0,-0.34,-0.43,0.0,352.19,0,0,1
-0.56,8.81,1.04,-0.13,-0.18,-1.23,0.0,346.83,0,0,1
-4.33,9.23,1.7,0.17,0.22,-1.57,418.34,578.3,0,0,1
-5.66,4.04,2.16,-0.09,0.2,-2.13,365.89,497.33,0,0,1
-5.6,3.66,2.33,-0.15,-1.77,-1.9,329.21,443.97,0,0,1
-5.43,5.82,1.89,0.17,0.95,-0.47,409.1,571.16,0,0,1
-6.65,5.56,2.57,-0.16,-0.52,0.09,369.91,492.41,0,0,1
-6.44,5.9,2.26,-0.01,0.16,0.15,0.0,0.0,0,0,1
-6.05,5.06,2.63,-0.16,0.05,0.7,0.0,0.0,0,0,1
-5.22,4.14,2.54,-0.1,0.36,1.64,0.0,0.0,0,0,1
-3.57,5.84,2.28,-0.06,0.75,1.87,0.0,0.0,0,0,1
-3.11,8.17,2.47,0.02,0.73,1.48,0.0,0.0,0,0,1
-3.04,9.45,2.26,-0.15,0.77,0.96,0.0,0.0,0,0,1
-1.98,9.93,2.04,-0.28,-0.11,0.5,0.0,0.0,0,0,1
-1.3,9.89,1.51,-0.03,-0.78,0.14,0.0,303.01,0,0,1
-2.18,10.17,1.86,-0.11,-0.01,-0.05,0.0,0.0,0,0,1
-0.63,10.87,2.67,-0.04,0.21,0.08,0.0,328.71,0,0,1
0.46,11.14,1.95,0.04,0.03,-0.06,0.0,0.0,0,0,1
-0.15,10.25,2.22,-0.03,0.44,0.09,0.0,0.0,0,0,1
-0.73,9.26,2.09,-0.09,0.22,0.2,0.0,0.0,0,0,1
-0.33,10.48,2.29,-0.1,0.19,0.08,0.0,0.0,0,0,1
1.03,12.59,2.53,-0.13,0.24,-0.01,0.0,0.0,0,0,1
-0.49,12.38,2.12,-0.19,-0.1,0.01,0.0,0.0,0,0,1
-1.22,9.85,3.21,-0.2,0.12,-0.36,0.0,0.0,0,0,1
-0.65,8.29,2.49,-0.28,1.09,-0.95,0.0,0.0,0,0,1
-2.05,5.39,1.84,0.36,-0.57,-1.38,311.42,389.66,0,0,1
-4.11,6.29,0.9,0.13,-0.51,-1.39,312.36,432.79,0,0,1
-4.09,4.63,2.53,0.13,-0.79,-1.72,415.6,523.47,0,0,1
-6.73,6.13,1.68,0.29,1.31,-0.26,468.74,617.41,0,0,1
-3.98,6.41,1.56,-0.22,-0.52,0.35,362.87,419.05,0,0,1
-4.92,6.91,2.51,-0.12,0.21,0.12,406.44,592.38,0,0,1
-5.27,6.0,2.47,-0.23,0.4,0.53,0.0,0.0,0,0,1
-5.72,5.85,2.82,-0.21,0.33,1.63,0.0,0.0,0,0,1
-3.23,6.6,2.14,-0.22,0.18,1.96,318.53,373.51,0,0,1
-0.96,8.15,1.83,-0.24,0.41,1.51,367.13,442.0,0,0,1
-0.27,7.82,3.0,-0.16,0.09,1.08,378.58,430.86,0,0,1
0.25,9.36,2.16,-0.02,0.38,0.53,346.96,388.12,0,0,1
-0.17,10.04,2.14,-0.15,0.25,-0.02,0.0,325.02,0,0,1
-0.52,10.14,2.39,0.09,0.35,-0.35,0.0,0.0,0,0,1
-0.86,10.19,3.06,0.11,0.58,-0.56,0.0,329.39,0,0,1
-1.25,11.15,2.6,0.21,0.76,-0.56,0.0,347.29,0,0,1
-1.84,10.88,2.04,0.18,0.38,-0.21,0.0,0.0,0,0,1
-2.16,9.55,1.64,-0.11,0.17,0.16,0.0,0.0,0,0,1
-1.38,10.04,1.94,-0.24,0.1,0.05,0.0,0.0,0,0,1
-0.6,11.27,2.3,-0.31,-0.14,0.07,0.0,0.0,0,0,1
-2.3,12.04,2.82,-0.37,0.01,0.09,0.0,0.0,0,0,1
-1.33,10.47,2.86,-0.2,-0.38,0.02,0.0,304.86,0,0,1
-1.88,8.61,3.04,0.01,-0.24,-0.42,0.0,364.3,0,0,1
-0.94,7.47,2.04,0.22,-0.4,-1.03,367.26,460.45,0,0,1
-0.58,6.6,1.26,0.29,-0.66,-1.45,477.59,833.81,0,0,1
-3.62,5.29,1.62,-0.14,-0.45,-1.76,416.92,588.16,0,0,1
-5.72,4.45,2.9,0.0,0.18,-1.71,442.41,570.94,0,0,1
-7.98,6.26,2.69,0.02,0.52,-0.01,395.59,477.04,0,0,1
-5.15,6.37,2.6,-0.08,-0.03,0.15,364.55,418.28,0,0,1
-6.17,6.05,2.65,-0.11,-0.07,0.17,426.18,727.44,0,0,1
-5.63,5.96,2.35,-0.24,0.18,0.71,0.0,0.0,0,0,1
-5.74,4.76,2.94,-0.3,0.41,1.51,0.0,0.0,0,0,1
-4.31,5.6,2.72,-0.2,0.54,1.76,0.0,0.0,0,0,1
-2.87,7.21,2.94,0.06,0.58,1.55,0.0,0.0,0,0,1
-0.9,9.09,1.64,0.1,0.67,0.9,0.0,358.48,0,0,1
-1.0,9.49,1.45,-0.24,0.14,0.3,0.0,0.0,0,0,1
-1.28,10.06,2.47,-0.38,-0.26,-0.0,0.0,314.5,0,0,1
-0.57,10.76,2.05,-0.16,0.05,-0.2,0.0,349.15,0,0,1
-1.08,11.25,3.69,0.15,0.3,-0.16,0.0,321.13,0,0,1
-1.51,10.49,3.56,0.2,-0.04,0.15,326.8,413.41,0,0,1
-1.87,9.44,1.91,0.03,0.1,0.17,0.0,0.0,0,0,1
-1.47,9.19,2.27,-0.12,-0.02,0.05,0.0,0.0,0,0,1
-1.1,11.09,2.71,-0.1,-0.14,0.06,0.0,0.0,0,0,1
-1.23,11.85,3.13,-0.2,0.18,0.11,0.0,0.0,0,0,1
-1.72,11.66,3.0,0.02,0.2,0.27,0.0,432.92,0,0,1
0.19,10.81,2.72,0.22,-0.63,0.1,363.35,547.41,0,0,1
-2.03,8.48,1.6,0.35,0.32,-0.7,311.09,433.71,0,0,1
-1.66,6.65,0.86,0.33,-0.39,-1.27,363.44,573.52,0,0,1
-2.94,4.99,1.69,-0.04,-0.37,-1.9,475.43,684.72,0,0,1
-3.51,5.28,1.61,0.11,-0.48,-1.38,527.58,798.22,0,0,1
-4.79,6.78,1.23,0.03,-0.06,-0.13,429.53,610.1,0,0,1
-6.02,7.43,1.68,-0.12,-0.07,0.15,336.25,432.09,0,0,1
-5.49,7.19,2.11,-0.15,-0.38,0.24,356.78,419.19,0,0,1
-4.73,6.83,2.08,-0.26,-0.08,0.54,0.0,308.04,0,0,1
-5.06,6.17,2.15,-0.2,0.23,1.12,0.0,355.83,0,0,1
-3.18,5.59,3.17,-0.13,-0.09,1.6,320.35,425.01,0,0,1
-1.4,7.76,1.89,0.21,0.72,1.71,450.53,549.21,0,0,1
0.69,9.37,0.8,-0.02,0.53,1.26,408.83,494.28,0,0,1
1.36,9.49,0.45,-0.1,0.69,0.62,361.17,426.57,0,0,1
1.48,9.85,1.05,-0.36,0.64,0.0,308.43,352.87,0,0,1
1.12,10.24,1.85,-0.34,0.85,-0.62,0.0,322.42,0,0,1
-1.11,10.6,3.43,-0.03,0.68,-0.81,0.0,0.0,0,0,1
-1.47,11.87,2.11,0.2,0.59,-0.55,0.0,306.73,0,0,1
-1.0,11.2,2.14,0.12,0.43,-0.11,0.0,0.0,0,0,1
-2.16,9.68,1.42,0.01,0.09,0.19,0.0,0.0,0,0,1
-0.76,10.31,1.36,-0.06,-0.19,0.17,0.0,0.0,0,0,1
-0.58,12.18,1.92,-0.11,-0.16,0.28,0.0,0.0,0,0,1
-0.39,11.77,1.76,-0.36,-0.02,0.38,0.0,0.0,0,0,1
0.42,10.64,1.7,-0.37,0.08,-0.06,0.0,396.22,0,0,1
0.66,9.37,1.12,-0.3,-0.5,-0.65,0.0,403.69,0,0,1
-2.0,6.97,2.09,0.06,0.15,-1.2,686.16,985.98,0,0,1
-4.51,7.12,2.86,0.16,-0.17,-1.24,476.36,687.19,0,0,1
-3.78,6.28,2.82,0.1,-0.74,-0.88,578.95,786.73,0,0,1
-2.55,7.13,2.5,0.07,-0.96,-1.03,619.52,786.39,0,0,1
-4.95,6.25,2.69,0.1,-0.03,-0.91,550.76,726.66,0,0,1
-7.8,6.51,2.35,0.05,0.17,-0.31,617.29,823.15,0,0,1
-5.5,7.59,2.59,-0.12,-0.51,0.05,480.38,578.28,0,0,1
-6.03,7.0,2.43,-0.04,-0.07,-0.01,433.68,523.5,0,0,1
-5.13,7.08,2.15,-0.15,0.18,0.12,363.97,428.51,0,0,1
-5.49,5.39,2.75,-0.36,0.05,1.01,0.0,317.55,0,0,1
-4.6,6.22,3.25,-0.34,0.15,1.54,0.0,317.25,0,0,1
-2.98,6.26,2.73,-0.24,0.46,1.75,416.85,486.38,0,0,1
-2.1,8.34,2.65,-0.08,0.64,1.6,421.78,513.24,0,0,1
-0.76,9.21,2.21,0.01,0.64,1.04,392.95,483.65,0,0,1
1.31,9.73,0.76,-0.18,0.42,0.48,323.92,364.39,0,0,1
-0.07,8.87,2.92,-0.43,0.41,0.09,0.0,329.22,0,0,1
-0.07,9.22,3.33,0.21,0.65,-0.59,0.0,0.0,0,0,1
-1.53,10.83,2.13,0.36,0.61,-0.68,0.0,0.0,0,0,1
-0.53,12.19,1.95,0.22,-0.05,-0.23,0.0,0.0,0,0,1
-0.17,10.87,1.25,0.05,0.33,0.02,0.0,0.0,0,0,1
-1.37,9.94,1.1,-0.23,-0.16,0.02,0.0,0.0,0,0,1
-0.29,11.38,2.02,-0.16,0.16,0.0,0.0,0.0,0,0,1
-1.41,12.22,2.04,-0.17,0.07,0.21,0.0,0.0,0,0,1
0.77,12.27,2.12,-0.27,-0.05,0.22,0.0,380.8,0,0,1
-1.62,8.91,1.19,0.23,-0.83,-0.52,312.24,413.57,0,0,1
-3.82,7.52,1.33,0.16,-1.0,-0.88,368.15,478.81,0,0,1
-2.47,7.38,1.01,0.28,-0.2,-0.95,387.06,564.89,0,0,1
-2.88,6.56,1.31,0.12,-0.17,-1.2,508.58,750.16,0,0,1
-3.12,6.94,1.61,0.14,-0.29,-1.23,419.13,513.16,0,0,1
-5.18,7.1,1.23,0.2,0.82,-0.67,391.45,518.27,0,0,1
-4.6,7.75,1.27,-0.11,-0.07,0.04,487.92,626.98,0,0,1
-6.24,8.09,1.34,-0.05,0.32,0.07,421.24,607.31,0,0,1
-5.58,6.87,1.62,-0.18,0.27,0.47,397.79,527.61,0,0,1
-4.09,5.66,2.03,-0.3,0.37,1.26,331.36,392.51,0,0,1
-2.88,6.34,1.69,-0.26,0.36,1.65,422.99,511.61,0,0,1
-1.08,7.35,1.75,0.03,0.72,1.68,376.69,448.47,0,0,1
0.22,9.22,1.01,-0.33,0.37,1.03,425.52,504.59,0,0,1
-0.63,8.39,2.43,-0.39,0.86,0.36,386.42,459.31,0,0,1
-1.33,11.02,3.12,0.25,0.39,0.03,386.66,424.2,0,0,1
-1.54,10.23,2.64,0.25,-0.21,-0.29,0.0,335.29,0,0,1
-1.31,11.22,-0.64,0.63,-0.4,-0.03,0.0,309.32,0,0,1
-0.63,11.44,1.55,-0.12,-0.24,-0.18,0.0,0.0,0,0,1
0.69,11.25,1.11,0.16,0.25,-0.46,371.48,487.53,0,0,1
-0.57,10.87,-0.34,0.0,0.43,-0.11,0.0,301.87,0,0,1
-0.09,10.1,0.41,-0.17,0.24,0.12,0.0,324.8,0,0,1
-0.26,11.37,0.7,-0.21,0.24,0.18,0.0,0.0,0,0,1
-1.11,11.86,1.51,-0.39,0.45,0.27,0.0,0.0,0,0,1
-0.66,12.28,1.63,-0.5,-0.16,0.16,0.0,0.0,0,0,1
-0.29,9.78,1.47,-0.41,0.51,-0.39,0.0,381.94,0,0,1
-1.33,7.45,3.01,-0.1,0.06,-0.83,361.97,514.01,0,0,1
-3.32,8.66,2.02,0.45,-0.37,-1.04,320.83,383.84,0,0,1
-3.23,6.89,0.89,0.14,-0.47,-1.43,502.07,678.05,0,0,1
-4.01,7.07,1.46,-0.19,-0.68,-1.3,379.77,469.75,0,0,1
-5.43,6.54,3.6,0.18,-0.54,-1.31,535.6,756.08,0,0,1
-8.36,6.73,1.42,0.32,0.95,-0.27,603.59,791.74,0,0,1
-4.39,7.01,1.78,-0.06,-0.17,0.1,466.03,614.04,0,0,1
-5.5,6.93,1.92,-0.08,0.09,0.04,408.08,565.71,0,0,1
-5.84,6.59,1.99,-0.15,0.59,0.32,335.39,449.23,0,0,1
-6.7,5.98,2.03,-0.41,0.38,1.12,416.44,623.77,0,0,1
-4.76,6.39,2.73,-0.5,0.57,1.59,352.57,426.74,0,0,1
-3.23,8.32,2.18,-0.07,0.97,1.68,394.34,461.6,0,0,1
-2.35,7.5,2.06,-0.16,0.54,1.36,416.68,574.72,0,0,1
0.53,9.19,1.66,-0.21,0.02,0.84,399.64,495.06,0,0,1
1.2,9.28,1.96,-0.07,-0.09,0.34,352.45,464.76,0,0,1
1.23,9.58,2.45,-0.25,0.18,-0.25,0.0,326.59,0,0,1
0.38,9.31,2.51,-0.07,0.02,-0.51,0.0,306.23,0,0,1
-2.8,10.57,2.87,0.25,-0.05,-0.62,0.0,0.0,0,0,1
-1.84,11.17,1.87,0.29,-0.31,-0.16,0.0,332.07,0,0,1
-1.09,10.86,1.24,-0.11,-0.1,0.06,0.0,0.0,0,0,1
-2.06,9.42,1.85,-0.13,-0.06,0.18,0.0,0.0,0,0,1
-1.42,9.52,1.9,-0.1,-0.0,0.17,0.0,0.0,0,0,1
-0.8,10.92,2.48,-0.07,-0.12,0.22,0.0,0.0,0,0,1
-0.88,11.75,2.69,-0.2,0.03,0.19,0.0,0.0,0,0,1
0.12,10.54,2.97,-0.32,-0.05,-0.16,0.0,308.49,0,0,1
-2.0,9.26,2.65,-0.03,0.25,-0.79,0.0,320.54,0,0,1
-2.94,7.4,1.98,0.18,0.42,-1.19,0.0,333.31,0,0,1
-5.03,7.04,2.3,0.4,0.29,-1.43,0.0,325.09,0,0,1
-4.35,6.73,2.0,0.07,-0.66,-1.92,0.0,347.46,0,0,1
-6.0,4.69,2.82,-0.03,-1.11,-1.51,530.06,759.38,0,0,1
-7.59,5.53,2.96,0.03,-0.27,-0.27,650.08,927.7,0,0,1
-5.49,5.86,2.92,0.02,0.17,-0.03,789.88,1158.57,0,0,1
-7.19,6.28,3.18,-0.03,-0.05,0.01,758.15,1049.37,0,0,1
-6.98,5.49,3.01,-0.1,-0.11,0.25,475.12,564.92,0,0,1
-7.32,5.86,2.78,-0.16,0.39,0.77,377.48,413.78,0,0,1
-5.94,5.49,2.76,-0.35,0.25,1.67,0.0,314.84,0,0,1
-4.74,6.0,3.02,-0.21,0.7,1.93,0.0,313.06,0,0,1
-2.38,7.73,2.56,-0.12,0.39,1.56,0.0,0.0,0,0,1
-1.12,9.42,1.98,-0.1,0.44,1.06,0.0,322.2,0,0,1
-0.54,8.84,2.83,-0.31,-0.22,0.44,332.91,369.43,0,0,1
-0.85,9.84,3.22,-0.25,-0.34,0.12,0.0,316.49,0,0,1
-0.65,9.88,2.48,-0.24,0.27,-0.15,0.0,324.1,0,0,1
-0.6,10.03,2.75,-0.08,0.28,-0.26,0.0,0.0,0,0,1
-0.34,11.29,3.45,0.09,0.64,-0.24,0.0,0.0,0,0,1
-1.97,10.27,2.94,0.03,0.79,-0.13,0.0,0.0,0,0,1
-2.17,9.0,2.49,-0.1,0.26,0.13,0.0,0.0,0,0,1
-1.55,9.78,3.23,-0.04,-0.18,0.14,0.0,0.0,0,0,1
-1.14,10.9,3.39,0.05,-0.42,0.13,0.0,0.0,0,0,1
-1.97,10.77,3.28,-0.08,-0.38,0.09,0.0,0.0,0,0,1
-1.24,11.18,3.26,0.03,-0.52,0.05,0.0,0.0,0,0,1
0.29,10.36,1.43,0.26,0.12,-0.6,0.0,318.93,0,0,1
-2.47,6.25,3.16,0.06,0.67,-1.58,0.0,356.88,0,0,1
-4.0,5.11,2.16,0.16,0.38,-1.68,0.0,368.91,0,0,1
-5.02,5.54,2.05,-0.28,-0.61,-1.87,0.0,330.39,0,0,1
-4.57,4.94,3.53,0.02,-0.18,-1.39,383.06,550.2,0,0,1
-7.63,5.96,2.26,-0.01,0.35,-0.06,744.77,1010.25,0,0,1
-7.49,5.95,3.13,-0.12,-0.13,0.03,572.2,777.11,0,0,1
-7.79,5.87,3.5,-0.11,-0.18,0.04,456.18,555.38,0,0,1
-6.87,5.39,2.65,-0.23,0.27,0.58,0.0,336.36,0,0,1
-5.25,5.2,2.71,-0.39,0.58,1.4,387.13,609.2,0,0,1
-6.22,5.75,2.5,-0.38,0.56,1.97,0.0,363.71,0,0,1
-3.32,6.91,2.2,-0.22,0.69,1.69,315.36,370.63,0,0,1
-0.5,9.14,1.76,-0.32,0.37,1.09,318.95,399.7,0,0,1
-1.42,9.28,2.63,-0.37,0.21,0.44,0.0,330.85,0,0,1
-3.14,9.78,3.8,-0.32,-0.02,0.07,0.0,0.0,0,0,1
-3.07,9.22,4.63,0.12,-0.37,-0.04,0.0,0.0,0,0,1
-1.75,9.76,3.48,0.29,-0.06,-0.37,0.0,0.0,0,0,1
-1.52,11.25,2.19,0.38,0.33,-0.39,0.0,345.02,0,0,1
-1.8,10.18,2.67,-0.05,0.37,0.09,0.0,0.0,0,0,1
-2.58,8.82,1.83,-0.09,0.14,0.08,0.0,0.0,0,0,1
-2.16,8.97,1.81,-0.08,0.14,0.09,0.0,0.0,0,0,1
-1.45,10.41,2.51,-0.06,-0.01,0.02,0.0,0.0,0,0,1
-1.15,12.02,2.83,-0.13,-0.28,0.19,0.0,0.0,0,0,1
-0.85,11.7,2.93,-0.32,-0.51,0.24,0.0,0.0,0,0,1
-0.22,9.96,2.84,-0.3,0.06,-0.26,0.0,340.54,0,0,1
-0.15,7.26,1.68,0.18,0.27,-1.15,0.0,408.17,0,0,1
-3.44,5.35,1.79,0.33,-0.04,-1.59,304.07,356.34,0,0,1
-5.96,6.67,2.63,0.31,-0.07,-1.22,0.0,376.4,0,0,1
-4.73,6.78,2.55,0.17,-0.43,-1.29,323.37,443.07,0,0,1
-6.35,5.62,3.38,0.24,-0.19,-1.09,460.42,654.02,0,0,1
-5.29,4.41,1.96,0.03,-0.23,-0.33,440.2,558.57,0,0,1
-7.39,5.47,2.32,-0.13,0.18,0.09,412.21,494.51,0,0,1
-6.5,5.95,2.57,-0.16,0.2,0.24,300.89,354.52,0,0,1
-6.26,5.89,2.63,-0.21,0.39,0.81,0.0,0.0,0,0,1
-5.49,4.72,2.85,-0.21,0.86,1.59,0.0,0.0,0,0,1
-3.47,5.96,2.19,-0.18,0.45,2.27,0.0,317.81,0,0,1
-1.9,7.04,1.09,-0.3,0.65,1.64,0.0,319.44,0,0,1
-0.12,10.5,0.86,-0.44,0.1,0.76,0.0,311.88,0,0,1
0.28,9.94,2.62,-0.52,0.44,0.07,0.0,332.55,0,0,1
0.01,9.71,2.14,0.04,0.37,-0.12,0.0,0.0,0,0,1
-1.5,10.69,2.35,0.16,0.2,-0.49,0.0,302.72,0,0,1
-3.04,11.93,3.39,0.44,0.14,-0.49,0.0,0.0,0,0,1
-3.48,10.67,2.05,0.05,0.05,0.03,0.0,0.0,0,0,1
-2.87,8.94,1.84,-0.2,0.03,0.14,0.0,0.0,0,0,1
-2.8,8.76,1.78,-0.14,0.04,0.06,0.0,0.0,0,0,1
-2.06,10.41,2.38,-0.08,-0.25,0.1,0.0,0.0,0,0,1
-1.13,11.22,2.65,-0.27,-0.36,0.13,0.0,0.0,0,0,1
-1.82,11.47,2.74,-0.4,-0.25,0.08,0.0,0.0,0,0,1
-0.6,9.62,2.65,-0.25,0.18,-0.25,0.0,370.11,0,0,1
-0.32,7.74,1.98,0.2,-0.38,-0.74,0.0,405.08,0,0,1
-4.08,6.61,2.57,0.19,0.6,-1.21,380.75,517.12,0,0,1
-5.69,5.74,3.45,0.51,0.06,-1.52,380.96,495.37,0,0,1
-4.98,3.72,2.08,0.3,-0.77,-1.72,420.76,566.92,0,0,1
-5.77,4.35,1.98,0.32,-0.21,-0.97,457.05,561.99,0,0,1
-8.26,5.61,2.11,0.05,0.03,0.02,502.39,611.42,0,0,1
-6.31,6.2,2.63,-0.09,-0.27,0.14,374.79,457.01,0,0,1
-7.1,6.18,2.25,-0.13,-0.15,0.08,362.11,408.12,0,0,1
-6.76,5.6,2.55,-0.18,0.22,0.42,0.0,0.0,0,0,1
-6.68,4.96,2.59,-0.34,0.6,1.4,0.0,0.0,0,0,1
-4.83,4.87,2.55,-0.26,0.35,2.15,0.0,0.0,0,0,1
-2.03,8.09,1.8,-0.12,0.7,1.89,328.56,422.59,0,0,1
-2.08,6.93,2.58,-0.15,0.57,1.3,0.0,332.82,0,0,1
-0.67,8.47,2.42,-0.01,0.21,0.75,0.0,331.18,0,0,1
-0.63,9.49,1.98,-0.27,-0.08,0.1,0.0,332.25,0,0,1
-2.24,10.74,2.59,0.05,0.6,-0.4,0.0,0.0,0,0,1
-2.11,9.52,2.76,0.16,-0.19,-0.29,0.0,0.0,0,0,1
0.32,11.1,0.66,0.38,0.1,-0.49,0.0,359.29,0,0,1
-0.24,11.74,1.83,0.11,0.06,-0.43,326.11,454.05,0,0,1
-3.53,10.68,1.42,-0.09,0.11,0.11,0.0,0.0,0,0,1
-1.23,11.69,1.7,-0.21,-0.02,0.67,0.0,0.0,0,0,1
0.45,12.71,1.35,-0.19,-0.11,0.97,0.0,0.0,0,0,1
0.07,11.95,1.81,-0.33,-0.25,0.5,352.02,478.63,0,0,1
0.2,10.02,1.07,-0.06,-0.63,-0.49,0.0,0.0,0,0,1
-1.0,5.43,2.44,-0.07,-1.48,-1.47,318.13,458.93,0,0,1
-4.55,5.44,2.57,0.12,0.1,-1.71,390.13,560.74,0,0,1
-2.83,4.79,1.48,-0.08,0.45,-1.81,444.4,573.46,0,0,1
-4.39,5.79,2.59,0.03,-0.09,-1.16,465.74,599.43,0,0,1
-6.35,6.71,2.33,-0.19,-0.24,0.23,509.6,700.26,0,0,1
-5.18,7.01,2.82,-0.08,0.15,0.0,468.44,633.05,0,0,1
-5.94,6.91,2.39,-0.05,0.26,0.09,447.11,582.83,0,0,1
-5.33,6.26,2.76,-0.16,0.17,0.33,322.89,361.52,0,0,1
-5.22,5.09,2.33,-0.18,0.39,1.1,390.52,598.39,0,0,1
-4.54,5.78,2.23,-0.13,0.38,2.08,338.05,481.11,0,0,1
-0.92,7.65,1.5,-0.23,1.03,1.74,348.33,437.25,0,0,1
-1.01,7.13,1.92,-0.21,0.91,0.92,368.2,425.22,0,0,1
0.53,10.78,0.77,-0.08,0.5,0.47,321.21,354.18,0,0,1
0.59,9.92,1.42,0.03,0.36,-0.16,306.89,349.55,0,0,1
-1.59,9.87,1.85,0.1,0.22,-0.55,0.0,0.0,0,0,1
-2.52,10.56,2.83,0.43,0.02,-0.86,0.0,0.0,0,0,1
-2.69,12.08,1.38,0.0,0.22,-0.52,0.0,0.0,0,0,1
-2.14,10.72,1.2,-0.17,0.02,-0.11,0.0,0.0,0,0,1
-2.05,10.46,1.35,-0.17,-0.2,0.3,0.0,0.0,0,0,1
-1.29,12.45,1.87,-0.21,0.05,0.51,0.0,0.0,0,0,1
-2.62,12.5,2.41,-0.34,-0.05,0.74,0.0,446.83,0,0,1
-1.14,10.7,2.72,-0.19,-0.37,0.13,0.0,406.25,0,0,1
-2.47,7.4,1.55,-0.11,-0.58,-1.14,492.41,632.45,0,0,1
-2.17,6.06,1.05,-0.13,-0.97,-1.34,445.24,654.36,0,0,1
-2.59,5.48,1.92,0.05,-0.01,-1.28,466.68,619.66,0,0,1
-3.06,5.17,2.14,-0.02,-0.51,-1.19,503.52,663.28,0,0,1
-4.88,4.86,3.01,-0.15,-0.4,-1.09,617.76,857.21,0,0,1
-3.71,6.98,3.51,-0.15,-0.35,0.12,478.15,560.44,0,0,1
-5.49,6.7,3.22,-0.01,0.31,-0.02,376.6,474.61,0,0,1
-6.1,6.55,2.9,-0.04,0.03,0.09,440.51,624.8,0,0,1
-5.19,6.19,2.55,-0.1,0.49,0.48,0.0,330.5,0,0,1
-5.84,5.92,2.17,-0.4,1.06,1.55,339.59,515.58,0,0,1
-3.73,6.12,3.32,-0.44,0.27,1.82,302.58,362.29,0,0,1
-2.23,7.66,2.5,-0.15,0.47,1.54,393.95,471.22,0,0,1
-2.41,8.55,2.28,-0.21,0.4,1.01,361.95,409.68,0,0,1
-1.85,9.44,2.69,-0.16,0.03,0.63,380.85,435.04,0,0,1
0.57,9.32,1.88,-0.31,-0.2,0.11,344.33,378.44,0,0,1
0.28,9.19,2.33,-0.04,-0.32,-0.28,346.14,405.55,0,0,1
