ax,ay,az,gx,gy,gz,mav,rms,label_kontraksi,repetisi,id_orang
1.03,-2.14,9.33,-0.05,0.05,0.08,819.93,1103.55,0,0,1
1.30,-1.66,8.89,-0.06,0.06,0.09,759.12,985.55,0,0,1
0.88,-1.86,9.19,0.01,0.16,0.01,729.79,928.93,0,0,1
0.86,-1.92,9.16,0.03,0.20,-0.03,642.58,752.25,0,0,1
1.00,-1.54,8.84,0.00,0.18,-0.04,602.92,692.42,0,0,1
0.64,-1.38,8.93,-0.04,0.10,-0.02,584.34,651.39,0,0,1
-0.03,-1.56,9.72,0.12,0.71,0.02,504.89,557.73,0,0,1
-1.72,-0.83,9.65,0.57,1.19,0.29,461.65,500.91,0,0,1
-1.87,-0.19,8.92,0.80,1.17,0.42,406.04,450.07,0,0,1
-3.29,0.77,8.56,0.80,1.48,0.62,421.12,514.89,0,0,1
-4.71,1.45,8.40,0.75,1.05,0.82,397.94,478.07,0,0,1
-5.51,2.78,7.29,0.80,1.74,1.00,427.94,490.00,0,0,1
-5.70,4.38,5.26,0.61,2.04,1.45,410.25,491.42,0,0,1
-7.59,7.26,3.81,0.51,2.09,1.95,386.93,462.96,0,0,1
-5.01,11.69,2.28,0.29,1.06,2.32,562.07,765.44,0,0,1
-3.38,13.22,2.19,0.18,-0.19,2.34,1084.88,1535.46,1,0,1
-2.61,9.24,2.52,0.32,0.14,0.41,1132.42,1471.69,1,0,1
-6.26,5.87,0.66,0.74,-0.43,-0.79,817.17,983.95,0,1,1
-1.65,2.81,1.61,0.33,0.49,-1.39,710.40,798.32,0,1,1
-4.13,4.86,1.84,-0.37,-0.65,-0.83,936.34,1233.38,0,1,1
-3.21,4.39,2.87,-0.59,0.35,0.97,802.09,896.06,0,1,1
-2.93,4.85,1.99,-0.70,0.32,1.67,980.06,1274.45,0,1,1
-2.76,6.10,3.32,-0.67,0.32,0.71,718.16,779.05,0,1,1
-2.43,9.81,1.72,-0.14,0.14,-0.65,692.24,803.56,0,1,1
-3.63,9.71,1.18,-0.10,0.88,-2.04,802.72,1026.66,0,1,1
-8.56,11.51,2.93,0.55,-0.03,-2.18,681.33,772.02,0,1,1
-11.16,11.87,3.07,1.05,0.14,-0.64,504.74,556.35,0,1,1
-6.34,9.59,1.49,0.03,-0.03,0.71,440.26,523.01,0,1,1
-5.07,8.85,0.85,-0.40,-0.21,0.84,400.22,428.90,0,1,1
-5.83,12.04,1.71,-0.50,-0.31,1.44,423.87,595.12,0,1,1
-6.02,11.99,3.51,-0.54,-0.60,1.36,420.29,543.92,0,1,1
-6.02,11.99,3.51,-0.54,-0.60,1.36,352.20,408.33,0,1,1
-3.72,9.05,2.65,0.03,0.60,0.33,414.71,544.67,0,1,1
-3.47,5.34,2.52,0.34,-1.18,-0.68,381.02,450.37,0,1,1
-3.14,4.43,1.95,0.50,-0.02,-1.21,358.41,397.03,0,1,1
-4.29,3.66,2.60,-0.09,0.04,-1.07,311.00,336.25,0,1,1
-3.39,4.35,2.96,-0.50,-0.15,0.26,414.29,643.94,0,1,1
-3.30,2.73,3.93,-0.43,0.90,1.55,738.66,1063.13,0,1,1
-2.49,6.43,2.58,-0.43,0.01,1.52,478.61,569.66,0,1,1
-4.23,6.53,4.33,-0.30,0.11,0.33,487.10,605.60,0,1,1
-3.29,8.73,2.93,0.01,-0.14,-0.48,473.03,533.16,0,1,1
-3.37,9.84,1.80,0.39,0.22,-1.77,377.29,416.37,0,1,1
-5.68,11.91,0.98,0.98,-0.64,-1.59,317.45,347.41,0,1,1
-5.94,12.58,0.67,0.23,-0.08,-0.19,351.95,444.41,0,1,1
-5.25,8.40,1.98,-0.57,-0.49,0.41,421.80,563.57,0,1,1
-5.94,7.57,1.53,-0.50,0.15,0.46,343.38,375.91,0,1,1
-5.29,11.14,2.54,-0.55,-0.40,0.99,502.29,678.50,0,1,1
-5.20,12.40,3.05,-0.66,-1.46,1.67,495.92,665.94,0,1,1
-1.55,10.86,4.72,-0.37,-0.94,0.95,501.89,699.17,0,1,1
1.99,10.18,2.49,-0.36,-2.74,-0.16,515.11,666.32,0,1,1
-0.10,3.97,5.22,-0.71,-1.21,-1.95,474.04,520.04,0,1,1
-2.20,-0.96,6.16,-0.81,-2.42,-1.59,567.75,744.60,0,1,1
0.40,5.42,4.85,-0.15,0.83,-0.22,539.62,662.44,0,1,1
0.01,3.26,5.51,0.11,0.75,0.72,593.74,774.37,0,1,1
-2.24,2.61,5.70,0.69,2.84,1.58,522.59,641.06,0,1,1
-0.06,6.59,4.15,0.59,1.59,1.42,556.49,628.40,0,1,1
-2.79,11.45,1.30,0.19,2.05,0.14,685.26,908.49,0,1,1
-3.06,8.90,2.24,0.18,0.84,-0.52,589.65,654.63,0,1,1
-3.98,11.12,1.45,0.88,0.89,-1.22,878.01,1153.53,0,1,1
-5.39,12.25,-0.88,1.11,0.38,-0.70,493.29,555.39,0,1,1
-3.10,11.78,-0.65,0.04,-0.68,0.11,395.85,499.78,0,1,1
-5.12,8.69,-0.41,-0.58,-0.17,0.34,564.19,669.41,0,1,1
-3.96,7.62,-0.07,-0.47,-0.24,0.36,512.91,597.67,0,1,1
-4.21,10.23,0.57,-0.29,-0.15,0.41,565.73,697.12,0,1,1
-4.26,13.76,1.35,-1.06,-1.47,1.13,626.13,824.50,0,1,1
-2.11,11.64,2.65,-1.12,-2.34,1.22,604.68,796.71,0,1,1
-0.02,10.05,3.02,-0.76,-2.42,0.57,561.87,676.88,0,1,1
2.29,6.09,4.04,-1.04,-1.78,-0.47,921.86,1256.66,0,1,1
2.01,3.31,4.80,-0.71,-0.91,-1.42,774.55,948.52,0,1,1
-0.43,2.80,6.78,-0.76,-0.11,-1.56,680.64,813.36,0,1,1
2.21,5.05,4.53,-0.31,-0.21,-0.19,661.97,760.68,0,1,1
0.72,4.50,5.42,0.11,0.97,0.80,876.14,1227.63,0,1,1
0.30,2.59,6.23,0.82,2.29,1.57,574.86,648.47,0,1,1
1.48,6.03,4.31,1.03,2.10,1.57,522.24,583.89,0,1,1
-0.88,8.09,3.29,0.54,3.14,0.16,988.79,1369.90,0,1,1
-2.79,9.25,1.33,0.61,1.71,-0.60,962.48,1214.99,0,1,1
-4.43,11.53,0.37,0.18,0.06,-1.55,664.60,760.07,0,1,1
-6.11,11.71,0.74,1.11,-0.37,-0.99,590.51,691.49,0,1,1
-5.52,12.54,0.74,0.49,-0.61,0.10,568.38,611.58,0,1,1
-4.50,9.12,-0.56,-0.36,-0.45,0.25,571.53,777.53,0,1,1
-5.52,7.51,0.22,-0.42,0.11,0.20,483.44,539.78,0,1,1
-4.46,8.20,1.10,-0.31,-0.23,0.19,629.25,946.06,0,1,1
-4.70,9.90,2.03,-0.31,-0.62,0.28,1780.10,2161.91,1,1,1
-3.86,13.20,2.02,-0.67,-1.86,0.96,788.61,877.13,0,2,1
-2.47,11.23,3.18,-0.48,-1.82,1.03,785.73,1014.88,0,2,1
-1.93,10.26,3.48,-0.32,-1.63,0.42,867.86,1089.84,0,2,1
-1.22,7.13,3.35,-0.70,-2.70,-0.53,737.63,859.98,0,2,1
0.49,5.38,3.65,-0.99,-1.40,-1.09,635.03,737.49,0,2,1
0.74,4.29,5.43,-0.81,-0.03,-1.38,618.92,757.27,0,2,1
-0.36,5.74,6.01,-0.50,-0.69,-0.64,545.43,676.41,0,2,1
-1.22,5.89,6.71,-0.15,0.48,0.21,418.34,483.06,0,2,1
1.33,5.49,5.21,0.47,1.94,1.01,413.47,470.93,0,2,1
-1.00,4.35,4.71,0.41,1.62,1.56,555.52,791.57,0,2,1
-0.31,7.54,3.45,0.50,2.44,1.28,709.90,1048.88,0,2,1
-2.06,8.72,2.49,-0.15,2.60,0.04,852.83,1183.95,0,2,1
-3.37,7.35,3.06,0.29,1.22,-0.30,638.05,717.95,0,2,1
-2.19,10.88,0.74,1.03,1.13,-1.05,645.04,704.90,0,2,1
-6.30,13.13,0.17,0.97,-0.03,-1.06,577.47,717.53,0,2,1
-5.72,12.11,-0.12,0.16,-0.12,-0.09,433.44,475.30,0,2,1
-3.88,8.44,-0.95,-0.39,-0.47,0.23,345.93,393.22,0,2,1
-5.20,7.28,0.12,-0.39,0.03,0.21,632.99,853.49,0,2,1
-4.64,8.29,0.88,-0.12,0.01,0.18,719.17,942.44,0,2,1
-6.90,13.17,0.42,-0.23,-0.44,0.79,541.28,620.25,0,2,1
-0.60,13.66,0.95,-1.01,-3.11,2.01,560.46,722.53,0,2,1
-0.34,10.64,2.76,-0.54,-2.19,0.67,832.12,1200.16,0,2,1
0.78,6.88,2.83,-0.93,-2.25,-0.72,726.45,999.38,0,2,1
0.95,4.50,3.03,-0.94,-1.55,-1.24,659.03,742.71,0,2,1
0.51,3.07,5.84,-0.84,-0.64,-1.12,658.54,702.94,0,2,1
1.27,4.18,5.94,-0.58,-0.26,-0.49,663.65,982.51,0,2,1
1.54,4.10,5.72,0.23,1.02,0.35,610.18,752.52,0,2,1
-1.88,2.44,5.86,0.66,2.74,1.48,708.66,927.91,0,2,1
-0.45,5.22,5.18,0.87,0.96,1.83,763.32,1037.87,0,2,1
0.49,9.84,2.45,0.46,2.91,0.35,751.92,930.73,0,2,1
-2.11,10.82,1.58,0.91,2.53,-0.20,729.01,833.75,0,2,1
-3.76,11.51,0.91,0.79,0.71,-0.78,673.98,753.68,0,2,1
-5.09,10.26,0.42,0.94,0.45,-1.40,554.23,649.83,0,2,1
-4.10,13.19,-0.56,0.35,0.37,-0.63,549.77,587.75,0,2,1
-3.94,9.84,0.11,-0.31,-0.98,0.25,334.47,393.42,0,2,1
-5.33,7.78,0.47,-0.36,0.14,0.28,335.79,407.17,0,2,1
-3.87,7.98,0.59,-0.24,-0.15,0.14,996.25,1377.54,0,2,1
-4.13,9.55,1.17,-0.22,0.04,-0.00,547.33,640.32,0,2,1
-5.35,13.51,1.69,-0.59,-2.13,0.77,498.79,542.84,0,2,1
-2.76,13.62,2.37,-0.60,-2.12,1.14,512.75,727.91,0,2,1
-2.03,11.23,1.73,-0.48,-2.14,0.47,924.38,1353.75,0,2,1
-4.05,6.74,4.56,-0.88,-2.64,-0.31,647.70,780.26,0,2,1
1.60,4.08,3.18,-0.65,-1.06,-1.35,619.17,748.01,0,2,1
0.47,3.55,4.24,-0.88,0.13,-1.59,755.44,969.83,0,2,1
0.08,4.68,5.40,-0.33,-0.46,-0.01,539.78,585.47,0,2,1
2.60,3.92,5.46,0.40,0.62,1.03,520.92,673.00,0,2,1
0.11,6.68,4.10,0.89,3.96,1.53,494.59,599.91,0,2,1
-2.08,6.11,4.47,0.30,2.60,1.17,446.75,508.74,0,2,1
-1.63,10.34,0.65,0.57,2.70,0.45,605.28,769.06,0,2,1
-1.67,8.81,1.10,0.16,1.33,-0.40,1432.09,1782.50,1,2,1
-1.67,8.81,1.10,0.16,1.33,-0.40,747.84,897.90,0,3,1
-3.69,10.10,-0.43,0.75,-0.78,-0.71,769.27,878.44,0,3,1
-4.59,11.90,-0.48,0.75,-0.83,-1.13,693.02,757.61,0,3,1
-4.95,13.52,0.41,0.73,0.35,-0.37,486.35,585.20,0,3,1
-6.49,10.19,-0.54,-0.35,-0.01,0.32,525.39,635.00,0,3,1
-3.82,7.44,-0.16,-0.53,-0.03,0.20,1329.38,1825.14,1,3,1
-4.32,8.14,0.51,-0.23,0.08,0.07,1648.57,1907.55,1,3,1
-4.10,9.70,0.76,-0.25,-0.23,0.16,963.94,1048.32,0,4,1
-4.48,14.01,1.03,-0.62,-1.51,1.05,728.08,817.23,0,4,1
-1.57,13.19,2.11,-0.87,-2.02,1.25,860.51,1224.05,0,4,1
-2.43,10.66,1.65,-0.52,-2.09,0.70,749.81,885.00,0,4,1
0.05,7.73,3.33,-0.90,-1.99,-0.29,879.18,1065.90,0,4,1
1.31,4.72,4.13,-1.10,-1.49,-1.19,910.16,1158.96,0,4,1
0.57,2.87,5.25,-1.14,-1.03,-1.25,730.78,848.96,0,4,1
1.71,5.17,5.71,-0.34,-0.54,-0.31,570.76,643.48,0,4,1
1.18,4.00,5.11,0.49,0.95,0.82,649.55,906.69,0,4,1
-0.63,1.64,5.00,0.83,0.90,1.80,675.53,812.91,0,4,1
0.68,7.79,3.42,1.22,3.95,1.18,698.74,802.35,0,4,1
-1.69,7.55,3.94,0.31,2.62,-0.08,778.04,943.24,0,4,1
-0.04,12.28,0.34,0.96,0.72,-0.70,940.17,1210.52,0,4,1
-2.95,13.47,0.45,0.82,0.88,-1.32,1528.75,1767.79,1,4,1
-3.30,12.42,-0.48,0.50,0.17,-0.81,838.40,952.13,0,5,1
-3.79,10.60,0.21,-0.07,0.04,-0.07,1897.54,2046.39,1,5,1
-5.24,8.40,0.05,-0.36,-0.03,0.23,1592.85,1681.03,1,5,1
-3.41,8.37,0.39,-0.22,-0.09,0.35,1216.94,1404.54,1,5,1
-4.19,8.67,0.70,-0.12,0.25,0.14,984.80,1108.11,0,6,1
-3.73,9.49,1.06,-0.14,-0.13,0.27,973.88,1117.68,0,6,1
-2.10,12.70,1.33,-0.39,-0.96,0.51,800.01,905.13,0,6,1
-2.56,12.86,2.16,-0.72,-1.95,0.70,745.46,790.64,0,6,1
-3.62,11.64,3.69,-0.81,-2.55,0.52,455.89,518.72,0,6,1
-1.45,7.03,4.72,-0.97,-2.96,-0.22,782.29,1132.64,0,6,1
2.12,4.30,4.24,-0.69,-1.58,-0.87,916.55,1225.46,0,6,1
1.14,3.25,5.12,-0.41,-0.40,-0.97,647.17,745.06,0,6,1
0.13,5.01,5.68,-0.42,-0.07,-0.35,578.33,665.25,0,6,1
1.87,4.26,4.82,0.36,0.92,0.68,844.18,1206.38,0,6,1
0.52,4.01,3.83,0.89,2.49,1.42,1544.37,1859.41,1,6,1
0.65,5.52,3.37,0.62,3.56,0.94,882.65,985.90,0,7,1
-1.35,8.94,3.01,0.38,3.01,-0.21,847.92,1037.94,0,7,1
-6.21,10.75,1.28,0.13,3.05,-0.74,1573.19,1834.26,1,7,1
-5.15,11.75,2.73,1.18,1.26,-0.76,1587.95,1697.34,1,7,1
-2.08,13.55,-1.20,1.22,0.37,-0.54,1290.03,1453.77,1,7,1
-3.85,11.43,-0.51,-0.23,-0.29,-0.29,1125.19,1214.76,0,8,1
-4.28,8.66,-1.10,-0.35,0.11,0.28,718.50,814.15,0,8,1
-3.49,7.82,-0.06,-0.30,-0.00,0.20,603.64,693.45,0,8,1
-4.35,8.52,0.37,-0.10,-0.07,0.05,604.94,726.85,0,8,1
-4.24,8.90,0.65,-0.16,-0.13,0.06,1395.68,1725.59,1,8,1
-5.56,12.25,1.73,-0.14,-1.10,0.62,1001.89,1237.90,0,9,1
-1.37,14.85,1.54,-0.65,-2.32,1.51,806.17,984.29,0,9,1
-1.29,12.23,2.81,-0.71,-2.70,0.97,726.30,810.06,0,9,1
0.09,7.58,2.67,-0.99,-2.31,-0.58,840.66,1108.97,0,9,1
2.61,5.66,3.13,-1.15,-1.80,-0.94,917.86,1114.75,0,9,1
1.20,2.48,5.55,-0.57,-0.25,-1.00,761.68,938.03,0,9,1
2.14,3.64,3.95,-0.46,0.59,-0.69,1086.41,1499.76,1,9,1
3.28,3.58,3.93,0.14,0.45,0.44,1227.03,1561.79,1,9,1
-1.36,3.83,4.80,1.20,4.15,1.50,1255.08,1452.61,1,9,1
-1.07,7.00,2.98,0.42,2.66,1.48,1138.82,1233.44,0,10,1
-2.53,10.82,0.75,0.35,1.46,0.73,744.74,872.86,0,10,1
0.61,11.87,1.57,-0.09,0.36,-0.19,1544.97,1798.69,1,10,1
0.12,9.22,4.53,0.55,0.17,-1.12,1095.74,1282.05,0,11,1
-1.53,13.83,-0.92,0.96,0.84,-1.35,984.46,1146.57,0,11,1
-4.75,12.06,0.98,-0.53,0.53,-0.38,968.22,1015.43,0,11,1
-4.31,8.81,1.35,-0.39,0.31,0.43,687.76,729.16,0,11,1
-2.70,7.94,1.41,-0.23,0.10,0.30,766.12,1061.30,0,11,1
-3.12,8.59,1.24,-0.03,0.14,0.08,1468.02,1846.52,1,11,1
-3.07,9.55,1.68,-0.05,-0.08,0.08,974.16,1189.64,0,12,1
-2.81,13.58,1.25,-0.34,-2.02,0.55,749.87,843.10,0,12,1
-1.50,13.05,1.98,-0.75,-1.94,0.79,723.25,959.44,0,12,1
0.75,11.13,1.44,-0.82,-2.14,0.24,897.10,1302.30,0,12,1
-0.90,8.06,3.20,-0.93,-1.97,-0.69,829.00,1081.76,0,12,1
1.35,4.64,4.18,-1.35,-1.11,-1.16,900.38,1103.60,0,12,1
1.93,3.00,5.39,-0.46,-0.87,-0.86,781.63,869.00,0,12,1
-0.39,5.60,6.18,-0.14,0.05,-0.24,649.32,717.60,0,12,1
0.77,3.54,5.82,0.14,1.51,0.36,562.47,623.73,0,12,1
-1.62,2.42,5.33,0.99,3.09,1.62,743.39,1052.78,0,12,1
-1.10,7.66,3.61,0.53,2.80,1.66,972.96,1354.00,0,12,1
-3.13,6.81,4.06,-0.20,2.48,0.49,802.06,965.64,0,12,1
-2.49,9.72,2.03,0.43,1.09,-0.12,946.98,1134.24,0,12,1
-3.65,11.35,2.01,0.48,-0.23,-1.00,1080.16,1293.44,0,12,1
-4.41,12.36,1.29,0.71,0.36,-1.15,794.86,874.11,0,12,1
-4.69,11.19,0.79,0.46,0.34,-0.33,783.90,941.51,0,12,1
-5.88,9.19,0.53,-0.42,-0.27,0.14,926.65,1106.78,0,12,1
-5.27,8.03,1.16,-0.51,0.04,0.27,668.20,723.80,0,12,1
-4.36,8.16,2.23,-0.23,-0.21,0.33,1484.44,1889.63,1,12,1
-3.81,9.83,2.25,-0.19,-0.27,0.42,1681.39,1856.78,1,12,1
-2.74,12.65,2.70,-0.27,-2.07,0.79,995.32,1124.70,0,13,1
-1.99,11.26,2.72,-0.62,-2.09,0.24,815.32,914.89,0,13,1
-2.71,8.60,3.30,-1.08,-1.22,-0.25,715.47,834.51,0,13,1
-1.73,4.37,5.83,-1.20,-2.73,-0.58,735.36,879.02,0,13,1
-0.06,4.28,6.07,-0.27,-0.88,-1.10,655.10,745.69,0,13,1
-0.24,4.09,4.89,-0.31,0.30,-1.04,600.85,678.16,0,13,1
1.00,3.77,6.08,-0.22,-0.84,0.12,520.03,608.92,0,13,1
0.79,3.46,6.25,0.60,1.65,0.99,598.07,804.68,0,13,1
-0.77,4.80,6.02,1.02,2.77,1.60,828.97,1241.74,0,13,1
-2.77,6.15,4.59,0.42,2.71,1.04,762.00,1061.70,0,13,1
-2.74,8.51,2.41,0.43,1.75,0.29,814.71,1011.23,0,13,1
-3.09,10.28,1.13,0.33,0.98,-0.45,775.64,865.92,0,13,1
-3.06,11.03,2.15,0.70,-0.21,-1.00,1120.12,1438.71,1,13,1
-3.06,11.03,2.15,0.70,-0.21,-1.00,958.69,1168.83,0,14,1
-4.96,13.40,1.15,0.50,-0.11,-0.59,698.12,785.94,0,14,1
-4.55,8.32,0.36,-0.34,0.05,0.22,493.12,563.92,0,14,1
-4.25,8.12,1.55,-0.28,0.06,0.17,447.87,501.50,0,14,1
-4.25,8.12,1.55,-0.28,0.06,0.17,700.10,964.53,0,14,1
-4.03,9.33,1.43,-0.10,-0.10,0.24,919.26,1232.40,0,14,1
-2.92,10.55,1.55,-0.42,-1.87,0.51,707.98,807.43,0,14,1
-3.86,12.66,3.19,-0.65,-2.96,0.71,534.37,594.76,0,14,1
-0.50,10.95,4.01,-0.56,-1.06,0.83,894.67,1285.24,0,14,1
0.12,8.88,2.45,-0.37,-1.41,0.09,983.08,1379.05,0,14,1
0.99,6.67,3.58,-0.64,-1.32,-0.67,991.26,1291.16,0,14,1
1.64,3.40,5.51,-1.14,-0.82,-1.30,769.24,857.59,0,14,1
0.37,3.46,6.66,-0.92,-0.25,-0.95,662.78,750.74,0,14,1
1.24,5.44,6.17,-0.31,0.19,-0.12,625.64,664.08,0,14,1
2.34,5.15,6.25,0.12,0.83,0.26,782.58,1061.25,0,14,1
-1.77,4.29,6.04,0.57,3.20,0.93,852.19,1219.65,0,14,1
-1.70,4.69,5.32,0.47,2.00,1.41,764.46,1003.91,0,14,1
-1.95,6.31,3.69,0.38,2.68,0.73,705.79,858.71,0,14,1
-0.93,9.43,1.30,0.46,2.93,0.09,689.10,776.86,0,14,1
-3.81,10.79,0.08,0.48,1.94,-0.51,592.41,705.15,0,14,1
-4.73,11.03,0.15,0.51,-0.17,-0.51,570.23,646.11,0,14,1
-3.10,11.11,-0.33,0.25,-0.32,-0.36,527.44,589.25,0,14,1
-2.73,9.96,0.15,-0.04,-0.45,-0.03,446.59,482.16,0,14,1
-3.46,8.99,0.54,-0.19,-0.06,0.07,341.75,395.47,0,14,1
-4.09,8.40,0.38,-0.23,-0.16,0.15,495.42,659.12,0,14,1
-4.49,8.16,0.85,-0.11,-0.26,0.18,453.12,547.69,0,14,1
-4.25,8.91,1.16,-0.08,-0.31,0.08,364.01,405.06,0,14,1
-2.83,12.69,1.47,-0.27,-2.51,0.30,410.51,503.97,0,14,1
-2.59,13.95,3.28,-0.80,-3.30,0.75,562.07,806.04,0,14,1
-0.89,9.38,4.37,-0.83,-3.22,0.30,623.00,845.97,0,14,1
-0.78,5.16,5.20,-0.81,-3.16,-0.25,538.63,674.93,0,14,1
0.75,4.88,5.01,-0.72,-0.67,-0.95,547.39,670.96,0,14,1
0.77,3.55,5.60,-0.68,-0.13,-0.95,513.21,580.41,0,14,1
0.75,4.47,6.40,-0.24,-0.33,-0.14,559.49,650.18,0,14,1
1.96,3.76,5.99,0.22,0.56,0.52,549.42,674.19,0,14,1
1.60,3.83,5.47,0.73,0.38,1.21,579.05,739.04,0,14,1
2.29,5.06,5.44,0.53,1.51,0.98,790.34,1100.95,0,14,1
2.98,7.44,3.64,0.57,1.93,0.30,752.06,1007.38,0,14,1
-1.19,8.59,2.19,0.43,5.24,-0.65,660.79,729.16,0,14,1
-5.13,10.16,0.89,0.79,3.41,-0.79,554.33,620.67,0,14,1
-5.97,11.84,0.44,0.71,0.85,-0.81,445.93,506.62,0,14,1
-5.49,10.36,0.42,0.33,0.27,-0.16,415.90,443.18,0,14,1
-4.69,8.62,-0.30,-0.07,-0.14,0.19,277.00,308.93,0,14,1
-4.96,7.89,-0.53,-0.29,-0.39,0.26,506.52,673.57,0,14,1
-4.88,7.72,0.19,-0.18,-0.19,0.14,535.47,692.53,0,14,1
-5.46,9.92,0.45,-0.03,-0.43,0.35,395.68,443.66,0,14,1
-4.06,14.87,1.52,-0.85,-4.14,1.13,449.73,566.70,0,14,1
-0.97,11.74,3.20,-0.72,-2.79,0.81,719.21,986.43,0,14,1
2.73,7.02,2.65,-1.01,-3.32,0.07,621.14,776.17,0,14,1
-0.08,4.93,4.33,-0.85,-1.48,-0.81,575.69,708.84,0,14,1
1.00,3.73,4.70,-0.97,-0.29,-1.10,533.05,616.68,0,14,1
0.94,3.96,5.68,-0.86,-0.33,-0.60,485.10,553.81,0,14,1
1.45,4.71,7.19,-0.07,0.45,0.15,468.14,560.65,0,14,1
0.58,2.74,6.73,0.63,1.20,0.61,445.06,555.66,0,14,1
-1.62,5.27,5.49,0.94,0.60,1.38,474.05,605.69,0,14,1
1.00,6.89,4.22,0.58,4.12,0.70,666.27,948.05,0,14,1
-1.38,6.93,3.96,0.75,3.74,0.16,624.92,764.12,0,14,1
-3.24,10.66,1.11,0.62,2.03,-0.24,705.43,809.37,0,14,1
-5.23,10.32,0.23,0.93,1.41,-0.89,725.88,858.85,0,14,1
-4.82,12.48,-0.57,0.68,-0.60,-0.60,584.49,632.46,0,14,1
-4.75,11.19,-0.75,-0.04,-0.29,0.15,423.27,456.72,0,14,1
-3.86,8.16,-0.70,-0.44,-0.17,0.28,412.59,503.64,0,14,1
-3.72,8.13,-0.00,-0.39,-0.22,0.19,541.00,694.60,0,14,1
-4.37,9.50,0.34,-0.30,-0.69,0.28,433.68,499.80,0,14,1
-4.93,12.38,0.78,-0.45,-0.89,0.64,485.38,635.47,0,14,1
-1.41,12.58,1.93,-1.09,-4.32,1.02,810.16,1202.69,0,14,1
0.02,9.69,3.36,-1.04,-2.65,0.32,725.26,946.14,0,14,1
0.17,6.97,5.44,-1.23,-2.21,-0.54,658.89,800.10,0,14,1
1.87,2.08,6.01,-1.19,-0.95,-1.35,622.77,706.05,0,14,1
1.51,2.83,5.66,-1.03,-0.46,-0.93,517.85,608.60,0,14,1
2.39,3.17,7.30,-0.34,0.02,-0.25,614.34,767.37,0,14,1
2.47,4.52,7.50,0.44,0.87,0.46,725.53,976.96,0,14,1
1.46,3.89,6.33,1.13,2.15,1.13,695.14,858.92,0,14,1
-0.52,4.56,5.32,1.55,3.46,1.37,722.66,939.73,0,14,1
-1.54,9.54,1.71,1.07,2.90,0.90,864.40,1188.15,0,14,1
-2.13,9.59,0.96,0.48,1.27,0.04,1394.20,1679.84,1,14,1
-2.62,9.81,0.51,0.06,-0.28,-0.72,1703.05,1767.76,1,14,1
-2.29,12.42,-0.04,0.48,0.86,-1.17,1351.31,1484.16,1,14,1
-3.91,11.86,2.19,0.06,-0.25,-0.56,1488.93,1507.50,1,14,1
-5.08,9.71,1.27,-0.06,-0.12,0.23,863.02,889.91,0,15,1
-4.05,8.02,0.73,-0.20,-0.08,0.39,1172.88,1603.11,1,15,1
-3.41,8.09,1.31,-0.11,0.26,0.19,1374.29,1692.92,1,15,1
-3.52,9.98,1.29,-0.18,0.05,0.23,971.04,1169.67,0,16,1
-4.35,12.06,0.80,-0.37,-0.37,0.84,759.94,839.57,0,16,1
-1.93,13.41,2.06,-0.84,-0.41,0.95,1063.66,1390.10,1,16,1
0.18,10.95,2.58,-0.81,-1.51,0.15,1038.56,1317.14,0,17,1
-2.36,6.65,5.27,-0.95,-1.87,-0.89,751.60,886.10,0,17,1
3.27,2.45,4.32,-0.63,-1.81,-1.40,812.20,939.04,0,17,1
-2.15,1.91,5.69,-0.56,-0.40,-1.51,717.23,793.53,0,17,1
-0.60,4.25,6.11,-0.01,0.65,-0.19,621.07,697.46,0,17,1
-0.74,3.82,6.82,0.11,0.18,0.58,620.32,768.46,0,17,1
-3.01,5.10,6.89,0.56,1.18,1.26,523.75,597.81,0,17,1
-1.98,4.23,5.88,0.66,1.59,1.34,629.80,792.98,0,17,1
-0.39,8.79,2.48,1.06,1.65,0.84,836.26,1201.00,0,17,1
0.42,10.48,1.15,-0.03,1.54,-0.16,844.54,1134.35,0,17,1
-3.30,9.60,1.84,0.32,1.05,-0.90,864.56,1025.03,0,17,1
-1.98,12.54,1.55,0.05,0.22,-1.12,839.87,976.44,0,17,1
-4.83,11.07,3.32,-0.01,0.61,-0.53,646.32,733.15,0,17,1
-4.99,9.08,2.55,-0.03,-0.17,0.37,594.38,674.23,0,17,1
-2.90,8.00,2.09,-0.02,0.41,0.33,489.44,577.33,0,17,1
-2.94,7.97,1.91,-0.11,0.05,0.06,620.77,719.97,0,17,1
-4.11,8.23,2.02,-0.06,0.19,-0.02,613.03,754.15,0,17,1
-4.01,9.61,2.16,-0.05,-0.19,0.11,580.67,683.45,0,17,1
-2.55,13.29,1.97,-0.47,-0.56,0.81,567.32,689.48,0,17,1
-3.27,11.81,1.66,-1.13,-2.04,0.78,637.29,887.52,0,17,1
-1.02,10.79,4.77,-0.78,-2.39,0.54,545.34,714.67,0,17,1
-1.02,10.79,4.77,-0.78,-2.39,0.54,572.96,716.69,0,17,1
0.21,7.81,4.04,-0.73,-2.83,-0.55,612.87,710.58,0,17,1
-0.59,2.37,5.91,-0.77,-1.23,-1.40,574.57,663.03,0,17,1
1.23,2.75,6.39,-0.89,-1.10,-1.07,536.66,622.13,0,17,1
1.35,4.33,6.37,-0.52,-0.28,-0.72,608.39,776.31,0,17,1
0.22,4.45,6.74,0.15,0.29,0.38,602.63,785.65,0,17,1
1.14,3.65,6.98,0.71,1.81,0.79,598.62,729.25,0,17,1
-3.09,2.47,6.12,0.68,2.88,1.34,737.15,1038.51,0,17,1
-1.87,6.44,3.11,0.43,1.84,1.08,767.94,1009.52,0,17,1
-2.18,9.20,2.94,0.02,2.88,0.08,850.47,1067.51,0,17,1
-3.78,9.90,4.83,0.38,0.52,-0.23,1454.43,1769.04,1,17,1
-2.60,12.25,2.21,0.46,0.07,-0.30,1062.38,1230.94,0,18,1
-2.53,10.00,2.24,0.20,0.30,-0.13,1047.04,1182.43,0,18,1
-2.19,9.53,2.40,0.14,-0.54,0.07,788.41,890.25,0,18,1
-2.59,9.45,2.20,0.03,0.03,0.08,896.52,1096.92,0,18,1
-2.53,8.73,2.08,-0.07,0.07,0.18,801.59,951.00,0,18,1
-2.45,8.61,2.60,-0.11,-0.12,0.16,817.76,1029.94,0,18,1
-2.39,9.53,2.85,-0.09,-0.18,0.04,987.59,1296.41,0,18,1
-2.25,11.97,2.99,-0.22,-0.84,0.38,975.81,1141.63,0,18,1
-2.23,13.48,3.54,-0.55,-1.89,0.91,854.89,964.10,0,18,1
-0.91,11.19,3.45,-0.57,-2.21,0.49,791.77,1000.14,0,18,1
0.18,6.81,4.62,-1.02,-2.39,-0.54,905.78,1074.34,0,18,1
1.48,4.20,4.38,-1.13,-1.33,-1.29,810.64,961.28,0,18,1
1.73,2.94,4.68,-1.11,-0.14,-1.38,624.10,709.82,0,18,1
2.49,3.90,5.83,-0.18,0.46,-0.02,526.57,624.61,0,18,1
2.42,4.00,6.81,0.70,1.57,0.85,750.32,1061.47,0,18,1
-1.25,5.21,4.99,1.15,4.63,1.26,678.07,886.94,0,18,1
-2.47,7.78,3.36,0.73,2.49,1.06,868.23,1266.66,0,18,1
-2.15,9.24,0.50,0.29,1.58,0.26,820.74,955.80,0,18,1
-3.72,8.84,1.27,0.07,0.42,-0.38,859.55,996.84,0,18,1
-1.41,11.05,-0.60,0.47,0.46,-0.97,715.65,826.58,0,18,1
-3.74,11.97,1.65,0.06,-0.42,-1.14,672.14,730.78,0,18,1
-4.23,11.37,2.03,0.24,0.17,-0.29,499.18,535.40,0,18,1
-4.70,9.10,0.34,-0.25,-0.07,0.34,417.85,485.58,0,18,1
-4.15,7.80,1.06,-0.36,-0.17,0.29,729.68,1063.19,0,18,1
-4.35,7.89,1.93,-0.18,-0.11,0.19,675.69,882.86,0,18,1
-4.18,8.62,2.05,-0.13,-0.16,0.13,494.92,558.20,0,18,1
-3.97,11.90,2.19,-0.42,-2.01,0.61,470.67,522.10,0,18,1
-2.75,13.21,2.83,-0.55,-2.41,1.32,603.61,831.54,0,18,1
-1.81,11.90,3.82,-0.59,-2.29,1.03,852.24,1140.14,0,18,1
3.41,8.45,2.63,-0.65,-1.61,-0.35,646.63,753.74,0,18,1
1.70,2.89,4.87,-0.71,-1.24,-1.36,668.78,802.02,0,18,1
1.15,3.52,5.19,-0.96,0.14,-1.26,562.95,629.22,0,18,1
2.63,3.54,6.51,-0.73,-0.81,-0.72,546.18,621.04,0,18,1
2.19,3.52,6.61,0.25,0.67,0.29,463.56,534.90,0,18,1
-0.74,2.59,5.99,1.15,3.33,1.33,524.81,654.12,0,18,1
-0.46,5.73,5.22,1.12,1.20,1.56,805.33,1112.50,0,18,1
-2.06,8.31,2.80,0.77,3.19,0.58,1040.70,1354.98,0,18,1
-1.68,9.51,1.79,0.49,1.16,0.13,764.04,892.60,0,18,1
-1.59,10.88,1.42,0.04,0.56,-0.31,789.56,917.04,0,18,1
-1.88,10.71,1.41,0.50,0.02,-0.30,878.57,1027.28,0,18,1
-0.52,11.69,1.25,0.37,0.14,-0.34,633.23,717.78,0,18,1
-1.93,10.87,1.28,0.04,-0.10,-0.14,577.98,687.27,0,18,1
-2.68,9.05,1.07,-0.22,-0.05,0.18,649.33,780.01,0,18,1
-2.32,8.80,1.43,-0.19,0.01,0.20,610.06,709.24,0,18,1
-1.53,9.42,1.29,-0.09,0.08,0.06,583.84,669.50,0,18,1
-1.46,11.69,1.28,-0.30,-0.98,0.19,639.02,810.78,0,18,1
-0.41,13.00,1.24,-0.62,-1.25,0.35,674.61,860.84,0,18,1
-0.67,12.50,0.51,-0.93,-1.42,0.25,701.68,951.25,0,18,1
-1.09,9.49,2.25,-1.14,-2.12,0.00,609.60,744.85,0,18,1
1.05,7.42,1.64,-1.22,-1.42,-0.53,1093.54,1447.32,1,18,1
1.69,2.98,6.63,-1.26,-1.23,-1.12,674.94,780.75,0,19,1
0.63,2.96,7.63,-0.59,-0.33,-1.22,598.17,696.49,0,19,1
0.81,3.96,5.96,-0.08,0.29,-0.30,552.42,615.86,0,19,1
1.64,3.68,5.53,0.56,2.53,0.62,510.32,577.94,0,19,1
-2.22,5.68,5.37,1.22,3.45,1.71,625.24,880.52,0,19,1
-2.41,6.19,3.98,0.42,2.16,1.39,767.36,1100.47,0,19,1
-2.63,9.06,2.13,0.76,1.24,0.84,913.97,1265.97,0,19,1
-1.00,11.55,0.12,-0.09,1.28,-0.12,689.99,766.70,0,19,1
-1.35,10.92,1.53,0.17,1.22,-0.53,567.35,641.63,0,19,1
-1.82,11.91,2.66,0.50,-0.10,-0.46,662.48,775.65,0,19,1
-3.43,10.83,1.42,0.47,-0.03,-0.33,496.27,569.05,0,19,1
-3.71,10.11,0.43,-0.02,0.32,-0.03,470.47,548.79,0,19,1
-4.05,9.21,1.59,-0.23,-0.20,0.17,810.07,1117.48,0,19,1
-4.06,9.00,1.36,-0.11,0.16,0.21,828.80,1082.52,0,19,1
-3.11,9.19,1.46,-0.17,-0.01,0.13,692.96,763.48,0,19,1
-1.85,10.48,1.84,-0.32,-0.77,0.20,641.67,698.58,0,19,1
-1.44,13.04,2.33,-0.44,-1.11,0.36,749.02,1028.58,0,19,1
-1.61,12.32,1.71,-0.87,-2.27,0.35,844.21,1195.59,0,19,1
0.14,9.47,1.02,-1.08,-2.30,0.04,786.10,938.53,0,19,1
0.91,7.53,3.36,-1.23,-2.00,-0.45,765.27,883.77,0,19,1
1.66,3.70,4.92,-1.29,-1.05,-1.30,789.71,914.86,0,19,1
1.86,2.98,6.51,-0.65,-0.42,-1.01,619.33,705.32,0,19,1
1.84,4.26,5.86,-0.31,-0.30,-0.32,552.67,616.38,0,19,1
1.95,4.06,6.53,-0.02,1.05,0.49,539.69,589.33,0,19,1
0.01,3.16,6.94,1.20,3.99,1.31,527.26,655.95,0,19,1
-0.44,7.42,5.37,1.20,2.09,1.80,674.53,946.84,0,19,1
-1.12,7.41,3.97,0.89,1.80,0.92,1192.07,1563.10,1,19,1
-1.09,9.34,2.40,0.70,0.77,0.25,684.55,776.45,0,20,1
0.74,11.71,-0.24,0.24,0.83,-0.53,634.46,733.37,0,20,1
-0.68,10.72,1.61,0.23,-0.29,-0.85,826.44,1021.08,0,20,1
-1.73,12.08,2.18,0.18,-0.05,-0.63,747.37,896.92,0,20,1
-2.32,11.01,1.76,0.02,0.02,0.11,578.39,680.75,0,20,1
-2.32,11.01,1.76,0.02,0.02,0.11,614.39,787.50,0,20,1
-2.43,8.34,1.97,-0.14,0.19,0.05,1037.82,1353.77,0,20,1
-2.43,8.94,2.04,-0.09,0.04,0.02,1006.78,1293.07,0,20,1
-2.41,8.92,2.17,-0.03,-0.02,0.03,736.43,835.08,0,20,1
-2.34,9.83,1.84,-0.04,-0.12,0.04,701.90,789.56,0,20,1
-1.52,13.05,1.72,-0.29,-1.08,0.37,651.81,789.63,0,20,1
1.21,12.78,1.51,-0.95,-2.22,0.74,800.19,1105.13,0,20,1
0.61,10.05,2.07,-1.08,-1.65,0.19,704.15,859.10,0,20,1
0.61,10.05,2.07,-1.08,-1.65,0.19,715.51,919.27,0,20,1
1.61,7.36,2.90,-0.99,-2.24,-0.53,645.24,769.70,0,20,1
0.15,2.38,5.63,-0.77,-1.07,-1.09,636.91,717.16,0,20,1
2.82,4.41,5.48,-0.66,-0.92,-0.60,551.25,650.50,0,20,1
3.20,4.21,5.44,-0.48,-0.49,-0.44,537.85,657.07,0,20,1
1.35,3.60,6.65,0.16,0.93,-0.01,631.71,803.99,0,20,1
-0.12,3.89,6.14,1.08,2.07,1.10,821.82,1232.67,0,20,1
0.65,6.68,4.03,0.89,3.59,1.14,899.83,1236.14,0,20,1
-0.15,7.17,3.79,0.71,1.74,0.65,758.33,879.87,0,20,1
-0.07,12.37,-0.03,0.46,1.50,-0.16,813.04,889.16,0,20,1
-2.76,9.94,2.71,-0.16,0.59,-0.71,730.70,808.20,0,20,1
-3.18,9.21,1.12,1.11,0.42,-0.76,581.32,664.96,0,20,1
-5.53,12.72,0.15,0.57,0.17,-0.47,526.60,589.27,0,20,1
-3.79,11.29,0.91,-0.22,0.06,0.11,447.59,487.84,0,20,1
-3.70,8.45,0.62,-0.38,-0.23,0.28,707.69,1010.76,0,20,1
-4.00,7.79,1.23,-0.24,-0.11,0.13,901.82,1305.62,0,20,1
-3.43,8.36,1.42,-0.03,0.05,0.02,690.72,783.17,0,20,1
-4.00,8.87,1.67,-0.04,-0.10,0.06,553.58,606.19,0,20,1
-4.92,12.17,1.40,-0.06,-0.93,0.42,550.16,672.56,0,20,1
-2.03,12.35,1.60,-0.75,-1.82,1.07,753.96,1126.56,0,20,1
-0.73,11.17,2.25,-0.78,-1.75,0.72,828.61,1096.67,0,20,1
-0.18,8.59,3.15,-0.87,-2.35,0.12,819.07,1066.82,0,20,1
-0.59,7.28,4.46,-0.79,-1.41,-0.44,886.07,1166.71,0,20,1
1.16,5.49,5.06,-0.79,-0.52,-0.88,784.24,915.25,0,20,1
2.16,5.36,4.56,-0.92,-0.97,-0.95,666.99,734.42,0,20,1
1.55,3.35,6.48,-0.84,-0.51,-0.57,556.75,624.06,0,20,1
2.74,4.61,6.52,-0.02,0.02,0.33,515.89,567.59,0,20,1
2.74,4.45,6.89,0.47,0.72,0.66,571.61,761.83,0,20,1
2.00,4.03,6.26,0.96,2.62,0.92,823.18,1179.54,0,20,1
3.42,6.59,3.79,0.71,1.70,1.07,1095.49,1548.77,1,20,1
0.74,6.48,4.02,0.44,2.14,0.42,952.67,1211.89,0,21,1
-1.71,8.18,1.78,0.85,5.97,-0.09,762.42,832.66,0,21,1
-2.47,11.94,3.17,0.49,0.90,-0.53,922.20,1107.58,0,21,1
-1.23,12.87,2.89,0.66,-0.24,-0.41,748.49,865.79,0,21,1
-2.62,11.03,1.17,0.15,-0.38,0.04,1607.39,1897.36,1,21,1
-2.19,8.84,1.10,-0.17,-0.03,0.18,1259.15,1418.35,1,21,1
-2.52,9.01,1.32,-0.05,0.13,0.17,989.95,1090.31,0,22,1
-3.19,9.22,1.93,-0.09,-0.28,0.12,989.47,1131.31,0,22,1
-3.23,8.73,2.32,-0.19,-0.57,0.03,1225.87,1516.79,1,22,1
-2.51,8.51,2.39,-0.22,-0.29,-0.10,1338.81,1548.48,1,22,1
-2.85,8.85,2.73,-0.18,-0.33,-0.13,1341.11,1490.06,1,22,1
-2.24,8.73,2.72,-0.11,-0.27,0.02,1345.37,1484.22,1,22,1
-1.84,8.20,2.62,-0.12,-0.16,-0.09,1284.75,1438.54,1,22,1
-2.92,8.34,3.10,-0.09,0.02,-0.15,1376.62,1534.28,1,22,1
-3.05,8.63,3.16,0.03,0.03,-0.08,1291.77,1482.61,1,22,1
-2.88,8.66,2.77,-0.03,-0.01,-0.06,1264.08,1435.12,1,22,1
