ax,ay,az,gx,gy,gz,mav,rms,label_kontraksi,repetisi,id_orang
0.10,0.44,9.28,0.15,0.33,-0.06,835.53,1078.21,0,0,1
0.02,0.88,9.40,0.20,0.44,-0.08,714.24,899.95,0,0,1
0.11,1.23,10.15,0.49,0.20,-0.19,602.92,709.22,0,0,1
-0.77,2.19,10.17,1.05,0.38,-0.27,667.54,771.98,0,0,1
-1.10,3.38,7.67,1.93,1.28,-0.59,706.87,823.03,0,0,1
-3.92,4.73,7.30,2.52,2.09,-0.56,840.73,992.91,0,0,1
-7.17,9.06,4.12,2.96,3.78,0.73,945.61,1128.12,0,0,1
-11.11,12.19,-0.94,1.61,3.32,3.19,667.64,752.84,0,0,1
-3.28,6.88,-1.32,0.41,0.75,4.27,585.10,627.01,0,0,1
-0.37,2.84,-0.39,-0.02,0.79,4.25,838.19,1192.29,0,0,1
6.72,1.06,0.60,-0.18,0.89,3.38,670.09,841.28,0,0,1
10.09,1.54,0.85,-0.29,0.14,2.27,629.02,743.60,0,0,1
13.23,2.77,-0.82,-0.34,-0.12,0.87,496.38,567.48,0,0,1
9.15,3.35,-0.59,-0.72,0.08,-0.37,417.88,469.38,0,0,1
9.04,4.00,0.06,-0.13,0.10,0.08,373.14,427.84,0,0,1
9.32,3.51,-0.51,-0.11,0.20,0.04,336.16,412.87,0,0,1
9.41,3.32,0.01,-0.10,0.10,0.06,329.00,410.69,0,0,1
9.57,3.71,-0.12,-0.06,0.01,-0.02,350.16,426.39,0,0,1
9.90,2.97,0.15,-0.27,-0.41,-0.21,329.78,367.76,0,0,1
9.92,0.90,0.40,-1.03,-0.71,-1.60,355.20,420.91,0,0,1
3.97,3.08,0.38,-1.07,-0.69,-2.73,400.23,471.15,0,0,1
2.62,5.97,0.12,-1.52,0.09,-3.54,492.64,610.83,0,0,1
-1.90,10.35,3.09,-1.22,-0.20,-3.80,845.68,1268.53,0,0,1
-3.12,14.81,0.89,-0.25,-0.35,-2.36,1363.32,1803.74,1,0,1
-1.25,14.47,1.45,0.60,0.91,2.47,789.72,849.43,0,1,1
0.05,10.52,1.64,0.47,0.88,3.09,515.80,607.00,0,1,1
0.05,10.52,1.64,0.47,0.88,3.09,1554.26,1942.99,1,1,1
1.47,7.51,1.53,0.20,0.67,2.96,927.43,1073.60,0,2,1
5.65,3.91,1.23,0.46,0.19,2.28,647.53,738.73,0,2,1
7.61,3.45,0.54,0.52,0.50,1.51,515.62,612.39,0,2,1
8.19,3.00,1.56,0.26,0.18,1.48,503.57,598.62,0,2,1
10.12,1.69,0.50,0.09,0.32,1.36,554.01,688.48,0,2,1
11.17,-0.07,0.56,-0.24,0.06,0.58,490.30,596.42,0,2,1
9.69,1.53,1.11,-0.11,-0.03,-0.11,408.19,493.05,0,2,1
9.95,2.06,0.57,-0.01,-0.18,0.08,318.50,381.91,0,2,1
9.66,1.84,1.06,-0.07,0.05,-0.04,396.19,507.78,0,2,1
10.43,0.26,1.05,-0.11,-0.22,-0.44,546.16,718.55,0,2,1
9.49,-0.59,1.44,-0.07,-0.37,-1.75,630.20,783.82,0,2,1
6.23,2.57,0.13,-0.51,-0.58,-2.39,606.40,716.18,0,2,1
4.12,6.62,0.14,-1.05,0.14,-2.46,582.11,714.93,0,2,1
3.23,7.68,1.86,-1.05,-0.09,-2.65,628.38,739.31,0,2,1
-0.42,11.60,3.56,-0.85,-0.29,-2.72,1057.24,1411.75,1,2,1
-0.87,11.50,2.65,-0.34,-0.05,-1.97,1243.49,1520.62,1,2,1
-1.34,12.82,1.09,-0.18,0.09,-0.88,992.66,1152.57,0,3,1
-1.79,11.31,2.56,-0.16,0.28,0.43,784.87,858.98,0,3,1
-0.49,11.77,1.28,0.34,0.45,0.96,798.52,1005.82,0,3,1
0.32,14.30,1.91,0.32,0.32,2.34,617.95,706.86,0,3,1
0.42,10.19,3.00,0.13,0.05,2.84,506.01,558.44,0,3,1
2.40,6.86,2.30,-0.11,0.30,2.42,660.12,833.50,0,3,1
4.58,3.76,1.99,0.31,-0.27,1.83,627.89,770.60,0,3,1
7.13,3.52,0.41,0.53,0.07,1.41,535.33,623.12,0,3,1
7.69,3.45,1.24,0.47,0.21,1.31,521.99,625.60,0,3,1
9.65,2.22,0.62,0.44,0.25,1.19,413.60,472.01,0,3,1
11.08,1.12,0.98,-0.03,0.07,0.43,345.90,388.60,0,3,1
9.88,2.38,0.82,-0.11,0.02,-0.10,382.09,498.39,0,3,1
9.30,2.55,0.79,-0.13,-0.03,-0.13,510.71,783.70,0,3,1
9.83,2.87,0.78,-0.13,0.12,-0.05,388.42,465.71,0,3,1
9.98,2.41,0.68,-0.02,-0.11,-0.24,460.10,563.65,0,3,1
10.22,0.36,0.62,-0.13,-0.17,-1.14,564.47,718.15,0,3,1
7.84,0.92,0.54,-0.37,-0.24,-2.41,710.01,868.40,0,3,1
3.35,4.69,0.36,-0.95,0.03,-2.67,552.87,650.09,0,3,1
2.50,8.31,2.08,-0.58,0.10,-2.43,527.77,588.64,0,3,1
0.34,9.86,3.10,-0.76,-0.37,-2.28,689.69,1017.10,0,3,1
-1.33,12.25,3.30,-0.51,-0.46,-2.08,1428.25,1777.29,1,3,1
-1.95,13.18,1.95,0.25,0.20,1.13,912.51,1184.06,0,4,1
-0.23,12.17,2.25,0.34,0.31,2.11,699.08,783.01,0,4,1
1.24,10.65,2.23,0.23,0.20,2.66,637.74,699.96,0,4,1
2.62,7.19,1.92,0.24,0.20,2.53,590.25,674.09,0,4,1
5.14,4.20,1.78,0.54,0.10,1.91,648.78,857.16,0,4,1
6.99,4.76,0.21,0.80,0.58,1.27,603.26,763.02,0,4,1
7.35,4.35,1.80,0.08,0.34,1.43,640.28,799.59,0,4,1
8.94,2.54,1.49,-0.01,0.33,1.19,564.21,749.63,0,4,1
10.12,1.69,1.49,-0.18,0.19,0.47,438.15,503.41,0,4,1
10.01,2.87,1.26,-0.24,0.08,0.12,426.89,481.65,0,4,1
9.81,2.58,1.55,0.02,0.01,0.04,344.94,383.57,0,4,1
9.47,2.52,1.42,0.00,0.11,-0.12,426.45,519.86,0,4,1
10.23,3.17,1.40,0.03,0.01,-0.33,542.06,655.32,0,4,1
9.63,2.02,1.63,-0.23,-0.13,-1.02,570.66,716.53,0,4,1
7.16,2.72,2.10,-0.63,-0.42,-1.74,650.72,870.37,0,4,1
4.73,4.78,2.04,-0.88,-0.50,-2.23,604.36,733.18,0,4,1
4.05,6.69,0.62,-1.15,-0.58,-2.57,551.57,654.42,0,4,1
0.00,7.66,2.15,-0.86,-0.13,-3.32,555.15,655.90,0,4,1
-2.67,11.83,2.60,-0.27,-0.18,-3.11,1540.80,1913.73,1,4,1
-1.97,15.20,1.92,-0.62,0.24,-0.42,1048.37,1271.94,0,5,1
-3.18,11.41,1.71,0.32,0.13,0.88,849.59,903.44,0,5,1
-0.14,12.59,1.93,0.54,0.23,2.06,607.71,672.05,0,5,1
0.85,10.74,0.62,0.39,0.32,2.94,547.00,692.14,0,5,1
2.92,8.15,0.87,0.25,0.60,2.88,1086.37,1455.93,1,5,1
8.20,3.24,-0.18,0.54,0.40,1.32,591.34,676.67,0,6,1
10.07,1.94,0.45,-0.12,0.24,1.18,523.30,591.61,0,6,1
10.01,0.37,2.37,-0.04,0.27,0.47,522.72,589.51,0,6,1
10.02,1.40,0.48,-0.09,0.05,0.23,411.04,484.49,0,6,1
9.92,1.70,0.85,-0.03,0.04,-0.10,375.45,409.79,0,6,1
10.05,1.99,0.96,0.04,0.01,0.01,296.38,333.11,0,6,1
9.80,1.84,1.19,-0.06,0.06,-0.01,376.63,477.37,0,6,1
9.89,1.79,0.85,-0.01,-0.01,0.03,741.06,1038.06,0,6,1
9.96,1.55,0.95,-0.06,-0.13,-0.16,683.80,897.07,0,6,1
9.96,-0.13,1.08,-0.24,-0.18,-0.85,606.76,722.89,0,6,1
8.34,1.31,-0.10,-0.57,-0.28,-2.14,489.70,562.48,0,6,1
5.86,4.30,0.77,-1.10,-0.20,-2.66,522.14,602.27,0,6,1
4.62,6.38,1.46,-1.13,0.05,-2.95,476.36,584.56,0,6,1
0.54,9.35,3.36,-0.63,0.23,-3.31,471.22,539.05,0,6,1
-1.40,11.53,2.79,-0.38,-0.06,-2.55,630.57,976.24,0,6,1
-2.84,13.15,2.21,0.02,-0.03,-1.17,1376.15,1762.22,1,6,1
-2.13,11.08,2.43,-0.26,0.06,0.29,786.30,896.67,0,7,1
-1.10,11.28,1.90,-0.04,0.31,1.08,687.68,726.71,0,7,1
-0.19,12.32,2.54,0.30,0.24,2.02,437.64,490.66,0,7,1
1.10,10.98,2.42,0.42,-0.02,2.75,403.73,457.18,0,7,1
2.37,7.77,1.91,0.35,0.09,2.76,719.97,1010.80,0,7,1
5.10,5.08,1.87,0.76,0.12,2.30,972.82,1296.56,0,7,1
7.66,4.05,0.62,0.80,0.09,1.81,575.91,666.38,0,7,1
8.02,3.77,0.37,0.42,0.49,1.43,565.58,675.91,0,7,1
9.13,1.17,1.50,0.08,0.17,1.15,579.11,724.66,0,7,1
10.32,-0.04,0.69,0.09,0.01,0.58,516.51,622.83,0,7,1
10.90,1.19,0.26,-0.14,0.00,0.04,474.91,560.69,0,7,1
9.93,2.24,1.03,-0.01,-0.06,-0.15,370.14,434.83,0,7,1
9.95,2.43,0.45,-0.00,0.01,-0.03,416.94,536.47,0,7,1
10.28,2.42,0.65,-0.10,-0.03,0.03,419.54,530.56,0,7,1
10.00,1.98,0.88,-0.09,-0.09,-0.09,482.45,590.90,0,7,1
9.97,0.48,1.01,-0.25,-0.36,-0.58,544.21,718.04,0,7,1
8.83,0.02,0.80,-0.61,-0.38,-1.79,1082.28,1482.80,1,7,1
5.23,7.91,0.68,-0.99,-0.07,-2.50,611.61,671.26,0,8,1
1.80,8.29,2.62,-0.68,0.03,-2.89,482.17,538.36,0,8,1
-0.69,11.00,1.67,-0.81,0.13,-2.73,1214.31,1649.18,1,8,1
-2.74,12.33,3.25,-0.06,0.03,-1.89,1696.54,1936.25,1,8,1
-2.81,11.49,1.97,-0.18,0.02,-0.41,1121.81,1288.50,0,9,1
-0.74,9.35,1.72,-0.03,0.12,0.09,844.80,956.07,0,9,1
-2.76,12.19,1.94,-0.03,0.51,0.54,691.62,781.85,0,9,1
-1.86,12.79,2.19,0.39,0.46,2.31,1083.62,1383.38,1,9,1
0.30,10.98,1.52,0.41,0.48,3.07,708.55,804.37,0,10,1
2.47,8.45,1.46,0.17,0.53,3.10,678.29,791.66,0,10,1
4.48,4.49,3.05,0.22,-0.19,2.63,710.87,850.86,0,10,1
7.00,2.44,1.13,0.56,0.05,1.61,586.28,652.35,0,10,1
8.84,2.92,0.08,0.23,-0.04,1.20,554.08,704.12,0,10,1
9.76,2.04,0.73,-0.03,0.09,0.80,442.89,512.57,0,10,1
9.69,1.91,0.49,0.17,0.34,0.18,421.86,486.10,0,10,1
9.85,3.17,0.95,0.05,0.13,-0.01,373.57,430.32,0,10,1
9.46,2.73,1.02,-0.01,0.01,-0.00,910.05,1323.76,0,10,1
9.95,3.05,0.34,-0.04,0.01,-0.01,673.26,847.37,0,10,1
10.06,3.47,0.65,-0.13,-0.01,0.06,435.32,488.92,0,10,1
9.58,2.66,0.55,-0.11,-0.06,0.04,453.00,535.50,0,10,1
9.69,1.79,1.11,-0.11,-0.23,-0.21,391.56,456.94,0,10,1
9.71,0.71,0.58,-0.33,-0.34,-1.32,371.71,422.49,0,10,1
7.30,3.85,-0.51,-0.86,-0.26,-1.92,507.26,602.35,0,10,1
6.17,5.27,0.46,-1.02,0.10,-2.54,459.04,567.31,0,10,1
1.76,6.71,2.34,-0.90,0.17,-2.87,478.13,553.24,0,10,1
1.75,10.76,2.17,-0.81,-0.20,-2.65,536.59,689.10,0,10,1
-1.37,10.28,3.86,-0.57,-0.14,-2.12,1712.36,2071.51,1,10,1
-4.01,12.25,2.71,0.12,0.26,1.30,1560.55,1793.18,1,10,1
-1.25,12.13,2.34,0.21,0.33,2.60,1132.14,1316.69,0,11,1
0.64,10.40,1.75,0.03,0.39,3.16,874.81,979.97,0,11,1
2.23,6.63,3.09,0.24,0.00,2.84,759.03,892.09,0,11,1
5.13,4.67,2.21,0.67,-0.23,2.36,711.21,835.57,0,11,1
8.08,3.33,0.57,0.55,-0.29,1.74,590.10,683.89,0,11,1
8.66,2.29,0.39,0.26,-0.06,1.17,518.73,594.15,0,11,1
9.88,2.02,0.37,0.02,0.09,0.71,463.06,535.68,0,11,1
9.99,1.84,0.64,-0.08,0.06,0.24,509.52,629.78,0,11,1
9.38,2.46,1.08,-0.09,0.16,-0.07,398.55,430.87,0,11,1
9.46,3.00,0.89,-0.01,0.05,0.02,333.49,400.39,0,11,1
9.68,2.70,0.75,-0.03,0.09,0.01,380.98,477.53,0,11,1
9.62,2.91,0.66,-0.05,0.05,0.04,465.45,593.70,0,11,1
9.92,2.32,0.93,-0.06,-0.10,-0.06,512.36,631.56,0,11,1
9.92,1.00,0.57,-0.31,-0.21,-0.70,518.78,663.12,0,11,1
8.67,2.51,-0.14,-0.59,-0.07,-1.49,572.70,715.41,0,11,1
7.10,3.95,0.57,-0.87,0.05,-1.88,484.75,573.93,0,11,1
5.35,5.35,1.26,-0.93,0.62,-2.35,476.83,542.65,0,11,1
2.65,7.44,2.77,-0.79,0.43,-2.66,492.87,563.82,0,11,1
-0.41,9.19,4.78,-0.38,0.75,-2.76,442.47,486.07,0,11,1
-2.56,11.37,4.44,0.09,0.43,-2.34,1175.70,1625.20,1,11,1
-2.35,11.31,3.29,0.15,0.02,1.51,543.60,595.30,0,12,1
-1.31,10.92,3.25,0.28,-0.07,2.36,442.31,497.33,0,12,1
0.71,9.04,3.26,0.26,-0.13,2.70,653.36,857.49,0,12,1
3.26,6.64,2.66,0.54,-0.29,2.69,783.12,1056.20,0,12,1
6.08,4.76,1.48,0.68,-0.27,2.14,538.35,615.76,0,12,1
7.20,3.02,0.30,0.39,-0.30,1.69,631.79,721.13,0,12,1
9.01,2.67,0.06,0.04,0.03,1.29,505.70,585.73,0,12,1
10.28,2.04,0.36,0.02,0.12,0.85,519.39,702.75,0,12,1
10.06,1.53,0.55,-0.02,0.25,0.23,471.25,530.83,0,12,1
9.64,2.30,0.92,-0.03,0.15,-0.01,373.64,430.09,0,12,1
9.85,2.56,0.79,-0.10,0.09,-0.02,366.28,403.10,0,12,1
9.71,2.70,0.75,-0.09,0.03,0.00,288.86,349.17,0,12,1
9.79,2.60,0.62,-0.08,0.05,0.01,431.87,545.26,0,12,1
9.71,2.72,0.56,-0.08,0.01,0.02,333.70,418.15,0,12,1
9.68,1.92,1.07,-0.09,-0.08,-0.10,429.93,537.04,0,12,1
10.03,0.77,0.63,-0.23,-0.32,-0.78,374.56,461.25,0,12,1
8.91,2.81,-0.25,-0.64,-0.26,-1.50,379.76,451.39,0,12,1
6.86,3.85,0.55,-0.97,-0.11,-1.98,404.92,545.75,0,12,1
5.07,5.34,1.32,-0.87,0.29,-2.22,493.62,609.68,0,12,1
3.12,7.85,1.52,-0.70,0.54,-2.41,453.88,535.60,0,12,1
0.63,9.88,3.11,-0.73,0.57,-2.66,488.31,583.10,0,12,1
-1.92,11.84,4.18,-1.03,0.63,-1.96,1496.73,1938.08,1,12,1
-1.36,11.67,4.09,0.15,-0.14,1.23,651.96,706.82,0,13,1
-0.93,11.47,4.30,0.60,-0.38,2.16,557.32,610.37,0,13,1
1.17,9.58,2.50,0.60,-0.20,2.62,485.26,528.39,0,13,1
3.04,7.27,2.05,0.47,-0.22,2.57,682.25,910.67,0,13,1
4.98,5.19,1.43,0.34,-0.15,2.25,664.87,888.51,0,13,1
7.13,3.37,1.24,0.30,-0.11,1.83,545.19,626.64,0,13,1
8.99,2.68,0.44,0.37,0.07,1.28,555.03,642.43,0,13,1
9.32,1.79,-0.03,0.17,0.26,0.94,460.43,524.04,0,13,1
10.63,0.87,1.39,-0.10,0.22,0.36,379.90,444.27,0,13,1
9.22,2.11,0.82,-0.07,0.11,-0.07,402.84,463.41,0,13,1
9.74,2.58,1.04,-0.04,0.11,-0.02,416.63,479.37,0,13,1
9.75,2.55,0.96,-0.07,0.10,0.01,347.02,423.85,0,13,1
9.71,2.43,1.15,-0.09,0.01,0.01,349.18,445.49,0,13,1
9.81,2.49,1.18,-0.08,-0.08,0.01,355.76,460.17,0,13,1
9.81,2.49,1.18,-0.08,-0.08,0.01,538.85,738.83,0,13,1
10.42,1.39,1.47,-0.17,-0.60,-0.39,786.73,1053.58,0,13,1
10.42,1.39,1.47,-0.17,-0.60,-0.39,438.87,520.98,0,13,1
9.28,1.16,0.17,-0.41,-0.42,-1.40,399.19,446.99,0,13,1
7.14,3.27,-0.48,-0.89,-0.22,-1.88,421.26,502.75,0,13,1
6.21,5.52,0.75,-0.91,-0.19,-1.95,471.71,553.85,0,13,1
4.27,7.81,0.15,-0.69,0.19,-1.98,490.05,572.37,0,13,1
3.31,8.73,2.21,-0.96,-0.00,-2.08,893.86,1249.11,0,13,1
1.04,10.91,3.01,-0.54,0.27,-2.15,1121.63,1451.72,1,13,1
-0.56,12.29,3.05,-0.00,0.12,0.60,1437.96,1730.38,1,13,1
-0.93,12.58,3.47,0.38,0.28,1.86,811.84,889.72,0,14,1
0.80,10.95,2.70,0.51,0.04,2.72,687.63,775.90,0,14,1
3.21,8.15,2.20,0.55,0.15,2.56,730.32,814.86,0,14,1
3.72,4.71,1.60,0.36,-0.09,2.24,633.62,741.85,0,14,1
6.81,3.47,1.45,0.25,0.19,1.85,596.68,682.93,0,14,1
8.66,2.49,1.36,0.19,0.03,1.51,489.64,568.20,0,14,1
9.77,0.97,0.29,0.27,0.05,0.97,556.90,693.87,0,14,1
10.31,1.21,0.40,0.02,0.18,0.40,420.11,561.13,0,14,1
9.90,1.62,1.50,0.01,0.16,-0.04,351.91,415.38,0,14,1
9.89,2.70,0.51,-0.05,0.05,0.02,394.75,476.34,0,14,1
9.93,2.58,0.71,-0.08,0.07,-0.03,269.93,298.57,0,14,1
9.61,2.46,0.97,-0.12,0.05,0.04,262.69,315.47,0,14,1
9.72,2.13,1.06,-0.10,0.04,-0.01,329.66,421.61,0,14,1
9.71,2.09,1.02,-0.07,0.01,-0.01,627.32,847.02,0,14,1
9.87,0.83,1.27,-0.13,-0.29,-0.28,439.24,518.68,0,14,1
10.06,0.19,0.57,-0.39,-0.38,-1.27,370.50,443.36,0,14,1
7.30,3.72,0.39,-0.64,-0.20,-1.74,431.56,516.09,0,14,1
6.28,4.91,0.84,-0.65,-0.06,-1.98,450.46,523.40,0,14,1
5.24,6.89,0.74,-0.59,-0.09,-2.09,458.29,551.30,0,14,1
3.71,9.71,0.51,-0.82,0.32,-2.16,600.31,774.76,0,14,1
1.75,9.79,1.85,-0.74,0.41,-2.22,1297.10,1697.26,1,14,1
-1.58,11.30,3.69,-0.08,0.25,0.50,994.60,1283.47,0,15,1
-0.87,11.96,2.98,0.14,0.22,1.46,843.09,990.12,0,15,1
0.05,11.22,3.11,0.31,0.10,2.53,688.69,783.14,0,15,1
2.04,8.71,2.57,0.34,0.07,2.86,596.46,669.76,0,15,1
4.48,5.79,2.53,0.44,0.01,2.48,655.23,795.14,0,15,1
7.21,3.90,1.40,0.56,0.12,1.77,620.38,703.79,0,15,1
7.95,3.45,0.93,0.24,0.02,1.44,490.25,566.68,0,15,1
9.70,2.31,1.30,0.09,0.05,1.16,511.34,566.77,0,15,1
9.27,1.30,1.05,0.04,-0.00,0.47,432.23,481.64,0,15,1
9.66,2.15,1.70,-0.03,0.18,-0.06,418.11,504.24,0,15,1
9.59,2.82,1.28,-0.03,0.02,0.02,371.77,413.52,0,15,1
9.61,2.86,1.24,-0.07,0.01,0.03,483.22,572.08,0,15,1
9.61,2.97,1.02,-0.13,0.01,0.03,406.00,488.39,0,15,1
9.59,2.73,1.21,-0.08,-0.03,0.04,407.48,487.74,0,15,1
9.96,2.35,1.35,-0.04,-0.28,-0.14,525.05,663.31,0,15,1
9.58,1.06,1.23,-0.19,-0.38,-0.78,471.90,619.25,0,15,1
8.43,2.28,0.11,-0.71,-0.46,-1.88,360.32,425.28,0,15,1
6.17,4.41,1.28,-0.97,-0.35,-2.40,469.55,561.33,0,15,1
4.05,7.18,1.35,-0.69,-0.28,-2.04,457.34,545.61,0,15,1
3.10,9.03,0.26,-0.47,-0.05,-1.75,448.77,499.93,0,15,1
2.24,9.89,0.81,-0.78,0.31,-2.04,654.21,794.24,0,15,1
-0.28,11.54,2.69,-0.79,0.23,-1.71,971.43,1279.49,0,15,1
-2.34,11.30,2.84,-0.32,0.19,-0.95,1063.03,1358.40,0,15,1
-1.09,11.83,2.61,-0.12,0.21,0.12,1294.87,1564.76,1,15,1
0.51,10.94,2.41,0.19,0.25,2.49,981.66,1120.80,0,16,1
2.90,8.43,2.13,0.29,0.09,2.63,693.03,807.95,0,16,1
4.06,5.54,2.47,0.33,-0.02,2.34,617.76,723.87,0,16,1
6.80,3.72,1.65,0.45,0.02,1.90,686.51,823.77,0,16,1
8.15,3.05,0.98,0.45,0.07,1.47,590.38,683.37,0,16,1
8.94,2.14,0.76,0.29,0.14,1.17,450.16,501.06,0,16,1
10.24,1.41,0.41,0.23,0.10,0.85,400.65,462.33,0,16,1
10.25,0.89,0.78,-0.02,0.07,0.33,362.94,436.66,0,16,1
9.63,1.26,1.40,-0.14,0.13,-0.03,317.81,391.54,0,16,1
9.90,2.17,0.76,-0.05,0.06,-0.03,384.93,510.62,0,16,1
9.76,1.95,1.00,-0.13,0.11,0.00,347.58,398.53,0,16,1
9.92,1.92,0.92,-0.12,-0.01,0.02,331.63,396.40,0,16,1
10.06,1.63,0.75,-0.13,-0.04,-0.16,491.89,621.93,0,16,1
10.16,1.24,1.12,-0.37,-0.20,-0.49,402.55,479.03,0,16,1
9.77,1.40,0.61,-0.47,-0.23,-1.22,461.04,559.08,0,16,1
8.44,2.86,0.72,-0.54,-0.31,-1.73,447.98,517.05,0,16,1
7.08,5.61,0.81,-0.47,-0.38,-1.68,414.17,517.81,0,16,1
6.34,6.90,0.25,-0.37,-0.20,-1.78,467.88,547.26,0,16,1
4.12,6.77,0.82,-0.50,0.16,-2.22,492.18,582.68,0,16,1
1.55,9.08,1.62,-0.46,-0.08,-2.14,603.27,773.04,0,16,1
0.58,10.36,0.94,-0.74,0.03,-2.05,880.01,1186.76,0,16,1
-2.03,10.75,3.12,-0.58,0.53,-1.72,1289.69,1629.54,1,16,1
-3.40,12.79,2.21,0.13,0.45,1.79,735.76,805.85,0,17,1
-1.44,11.07,1.77,0.30,0.41,3.04,669.02,728.96,0,17,1
2.19,7.92,1.60,0.17,0.18,3.32,570.09,639.28,0,17,1
4.06,5.68,2.21,0.20,0.26,2.76,595.43,712.14,0,17,1
6.88,3.83,1.83,0.23,0.08,2.05,597.84,748.84,0,17,1
8.16,3.09,1.17,0.01,-0.39,1.59,461.14,526.15,0,17,1
9.79,1.92,2.21,-0.01,-0.01,1.04,429.06,474.19,0,17,1
8.83,1.63,1.15,0.16,0.07,0.75,354.41,393.40,0,17,1
11.03,0.85,0.66,0.15,-0.44,0.46,289.96,317.98,0,17,1
9.86,1.68,1.08,-0.08,-0.01,-0.05,255.23,291.20,0,17,1
9.77,2.04,0.82,-0.04,-0.04,0.02,335.62,438.50,0,17,1
9.77,2.04,0.82,-0.04,-0.04,0.02,362.97,440.33,0,17,1
9.81,2.07,0.95,-0.09,0.08,0.02,317.53,358.98,0,17,1
9.90,1.67,0.95,-0.10,0.01,0.04,395.19,512.40,0,17,1
9.91,1.65,0.89,-0.10,0.05,-0.09,403.23,471.52,0,17,1
10.47,0.92,1.16,-0.10,-0.09,-0.51,408.12,537.03,0,17,1
9.35,0.70,0.49,-0.22,-0.17,-1.55,381.96,477.67,0,17,1
7.24,3.02,0.85,-0.73,-0.31,-1.91,384.75,453.34,0,17,1
6.47,5.20,1.47,-0.65,-0.41,-2.11,415.40,498.75,0,17,1
4.26,7.11,0.67,-0.35,-0.15,-2.24,456.47,538.33,0,17,1
2.67,9.23,0.50,-0.58,-0.11,-2.24,726.72,984.84,0,17,1
1.53,10.12,0.73,-0.77,0.16,-2.25,1236.35,1640.88,1,17,1
-3.41,12.09,2.94,-0.25,0.54,-0.19,1358.45,1711.43,1,17,1
-3.28,12.79,3.03,0.10,0.33,1.40,1522.41,1727.47,1,17,1
-1.92,11.52,2.15,0.17,0.22,2.59,1486.39,1598.22,1,17,1
0.43,8.81,1.85,0.18,0.17,2.97,1241.15,1385.23,1,17,1
3.13,6.37,1.82,0.08,-0.49,2.90,1103.13,1187.94,0,18,1
5.47,5.06,2.06,0.37,0.25,2.18,714.81,820.80,0,18,1
7.86,3.68,1.20,0.37,0.14,1.59,705.95,756.14,0,18,1
8.78,3.25,0.69,0.22,-0.17,1.29,558.20,622.42,0,18,1
9.23,2.42,0.71,0.14,0.01,0.97,437.39,512.81,0,18,1
9.82,1.29,1.07,0.07,0.24,0.54,366.51,420.86,0,18,1
10.06,1.38,1.04,-0.06,-0.02,0.02,417.31,502.89,0,18,1
9.47,2.53,1.15,-0.12,-0.01,-0.06,342.91,412.16,0,18,1
9.65,2.63,1.07,-0.09,0.01,0.01,400.67,466.58,0,18,1
9.65,2.40,1.15,-0.14,0.02,0.02,417.93,493.53,0,18,1
9.66,2.21,1.24,-0.12,-0.06,-0.04,496.85,637.62,0,18,1
9.80,1.69,1.31,-0.10,-0.34,-0.31,509.71,639.42,0,18,1
9.55,1.94,0.47,-0.35,-0.65,-0.72,488.93,553.26,0,18,1
8.77,2.55,-0.54,-0.82,-0.47,-1.31,475.56,558.05,0,18,1
7.45,3.72,0.75,-0.88,-0.29,-1.79,495.00,592.63,0,18,1
5.96,5.62,0.70,-0.85,-0.29,-1.97,472.26,543.51,0,18,1
4.80,7.44,0.70,-0.84,-0.10,-2.21,483.65,596.07,0,18,1
2.85,9.17,0.87,-0.87,0.10,-2.29,1116.93,1559.66,1,18,1
-2.22,11.40,3.06,-0.16,0.38,-0.50,1368.43,1742.57,1,18,1
-2.14,11.71,3.73,-0.07,0.22,0.47,1104.32,1380.60,1,18,1
-2.63,12.66,3.93,0.32,0.16,1.74,1082.70,1223.82,0,19,1
-0.41,11.20,2.30,0.40,0.14,2.77,855.09,940.61,0,19,1
2.30,7.38,2.05,0.37,-0.45,2.97,703.96,779.01,0,19,1
5.29,5.32,1.77,0.62,-0.03,2.29,735.67,884.43,0,19,1
6.85,4.36,1.44,0.58,0.15,1.68,642.52,770.58,0,19,1
7.98,4.26,0.89,0.47,0.28,1.27,496.88,577.02,0,19,1
8.78,3.08,0.87,0.33,0.08,1.06,427.10,485.34,0,19,1
9.82,2.46,0.72,0.34,0.19,0.65,391.90,436.72,0,19,1
10.30,2.42,0.76,0.06,0.06,0.33,298.36,342.90,0,19,1
9.56,2.23,0.91,-0.07,0.01,-0.04,336.58,460.88,0,19,1
9.56,3.49,0.88,-0.16,-0.07,0.03,669.25,863.36,0,19,1
9.56,3.07,0.60,-0.11,0.05,0.00,363.56,419.68,0,19,1
9.65,2.77,0.97,-0.16,-0.06,-0.03,321.37,368.51,0,19,1
9.97,2.10,0.57,-0.20,-0.11,-0.44,448.81,571.95,0,19,1
9.21,2.28,0.75,-0.41,-0.37,-0.88,450.49,557.49,0,19,1
8.71,3.55,0.36,-0.55,-0.40,-1.37,401.40,477.00,0,19,1
7.13,5.24,0.78,-0.58,-0.19,-1.77,420.72,508.77,0,19,1
5.64,6.20,0.20,-0.38,-0.23,-1.99,451.35,540.85,0,19,1
4.27,8.00,-1.59,-0.62,0.15,-2.42,427.29,498.16,0,19,1
0.32,9.00,1.89,-0.85,0.16,-2.63,386.64,427.77,0,19,1
-1.72,10.42,2.00,-0.82,-0.03,-2.24,616.74,843.29,0,19,1
-3.86,12.44,2.57,-0.61,0.21,-1.49,727.40,960.01,0,19,1
-4.10,11.98,3.06,-0.18,0.06,-0.07,781.67,1068.50,0,19,1
-3.26,10.90,2.32,0.10,0.17,0.85,1802.04,2066.45,1,19,1
0.52,8.26,2.42,0.18,0.34,2.70,978.31,1090.64,0,20,1
3.95,6.60,1.83,0.29,0.16,2.47,803.38,887.94,0,20,1
5.86,4.71,1.99,0.39,0.07,2.08,725.84,893.10,0,20,1
7.72,4.04,1.42,0.45,0.01,1.69,682.85,774.43,0,20,1
8.80,3.64,0.46,0.23,0.14,1.45,551.23,614.27,0,20,1
10.34,2.14,1.42,0.02,0.38,0.98,465.59,502.62,0,20,1
8.79,2.29,0.56,0.11,0.37,0.46,416.71,473.07,0,20,1
10.23,1.44,1.08,-0.01,0.06,0.12,364.15,407.23,0,20,1
9.65,2.13,1.22,-0.12,-0.14,-0.04,827.56,1094.94,0,20,1
9.82,2.88,0.86,-0.14,-0.01,0.02,780.58,1000.29,0,20,1
9.76,2.32,0.96,-0.14,0.02,0.04,501.64,574.71,0,20,1
10.07,1.92,1.23,-0.25,-0.20,-0.14,430.28,502.28,0,20,1
10.46,1.65,0.26,-0.45,-0.37,-0.65,476.02,552.14,0,20,1
9.37,1.92,0.32,-0.84,-0.43,-1.31,434.58,487.05,0,20,1
7.97,4.29,1.08,-0.83,-0.41,-1.67,405.54,456.38,0,20,1
6.32,5.10,0.82,-0.58,-0.13,-1.91,518.00,657.16,0,20,1
5.12,6.90,0.29,-0.59,-0.16,-2.07,575.77,741.60,0,20,1
3.30,8.56,0.63,-0.74,-0.25,-2.13,556.03,631.39,0,20,1
1.64,10.73,0.70,-1.00,0.09,-1.81,597.99,703.44,0,20,1
0.14,10.13,2.94,-0.87,0.24,-1.75,1154.81,1580.06,1,20,1
-2.35,11.68,3.31,0.21,0.17,1.11,1480.06,1810.65,1,20,1
-1.31,11.27,2.77,0.45,0.20,2.10,1138.80,1375.75,0,21,1
0.59,9.38,2.26,0.48,0.08,2.61,913.39,1018.07,0,21,1
2.99,7.18,2.23,0.54,-0.07,2.62,734.33,832.16,0,21,1
5.14,5.04,1.96,0.67,-0.04,2.30,704.33,849.14,0,21,1
7.64,4.07,0.60,0.59,0.04,1.80,667.66,755.47,0,21,1
7.64,4.07,0.60,0.59,0.04,1.80,555.17,652.12,0,21,1
8.65,3.13,0.40,0.24,-0.05,1.46,546.47,622.56,0,21,1
9.64,2.29,-0.11,0.07,-0.08,1.01,481.48,538.02,0,21,1
10.26,1.50,-0.47,-0.10,0.01,0.42,416.23,478.85,0,21,1
9.80,1.70,-0.01,-0.08,-0.12,0.01,367.98,412.82,0,21,1
9.78,2.74,-0.39,-0.09,-0.04,0.04,343.08,388.67,0,21,1
9.80,2.65,-0.09,-0.12,0.06,-0.01,409.02,497.14,0,21,1
9.74,2.25,0.35,-0.12,0.03,-0.02,443.34,559.25,0,21,1
9.85,1.85,0.24,-0.16,-0.08,-0.16,566.93,706.42,0,21,1
9.92,1.73,0.10,-0.34,-0.21,-0.68,484.41,562.20,0,21,1
8.96,2.37,0.08,-0.43,-0.16,-1.10,478.84,556.88,0,21,1
7.91,2.88,0.49,-0.39,-0.08,-1.89,507.54,651.97,0,21,1
6.23,5.83,0.08,-0.58,-0.33,-2.24,500.54,591.34,0,21,1
4.33,7.49,0.09,-0.70,-0.07,-2.58,477.93,551.67,0,21,1
1.45,9.10,0.43,-0.81,0.17,-2.75,494.10,573.75,0,21,1
-1.47,10.02,2.02,-0.77,0.21,-2.31,1025.23,1415.35,1,21,1
-4.50,12.44,2.96,-0.07,-0.00,0.36,1484.22,1853.69,1,21,1
-3.75,12.62,2.77,0.38,-0.01,1.87,1538.16,1713.54,1,21,1
-1.24,10.09,1.51,0.52,0.01,2.95,1374.77,1528.47,1,21,1
1.14,7.82,0.92,0.40,0.27,2.99,1120.66,1263.79,0,22,1
4.02,6.22,1.72,0.40,0.45,2.91,932.63,1043.77,0,22,1
7.18,4.15,1.47,0.53,0.16,2.25,738.01,840.43,0,22,1
8.17,3.40,0.80,0.52,0.42,1.54,662.07,748.03,0,22,1
9.21,2.73,0.88,0.29,0.17,1.14,562.10,636.04,0,22,1
9.09,2.00,1.05,0.31,-0.04,0.97,473.62,513.19,0,22,1
10.82,1.07,0.13,0.43,-0.03,0.44,395.38,432.29,0,22,1
9.94,1.98,0.51,-0.08,0.08,-0.03,369.48,398.78,0,22,1
9.87,2.14,0.45,-0.10,0.09,0.06,334.56,361.97,0,22,1
9.62,1.88,0.83,-0.09,0.07,-0.01,354.45,406.03,0,22,1
9.93,2.05,0.40,-0.09,0.03,0.02,374.34,460.37,0,22,1
10.75,1.73,0.46,-0.11,-0.08,-0.25,292.53,336.97,0,22,1
10.04,1.36,0.58,-0.22,-0.14,-0.73,424.91,608.22,0,22,1
9.67,1.98,-0.17,-0.49,-0.49,-1.66,530.34,732.05,0,22,1
7.32,3.43,0.66,-0.62,-0.23,-2.37,515.70,667.99,0,22,1
4.72,6.06,0.49,-0.36,-0.28,-2.33,501.00,566.44,0,22,1
3.65,8.33,-0.61,-0.28,-0.11,-2.31,485.16,552.39,0,22,1
1.54,9.57,0.16,-0.70,-0.23,-2.22,399.42,451.37,0,22,1
-1.24,10.75,1.17,-0.57,0.12,-1.98,516.75,638.02,0,22,1
-2.32,12.74,1.00,-0.34,0.13,-1.11,582.76,702.58,0,22,1
-2.40,11.35,1.51,-0.25,0.06,-0.09,644.30,832.86,0,22,1
-2.35,10.71,1.46,0.03,0.31,0.71,1058.47,1481.03,1,22,1
1.64,8.69,1.18,0.14,0.52,2.25,641.11,724.32,0,23,1
3.39,6.55,1.51,0.20,0.29,2.32,623.21,691.60,0,23,1
5.54,5.68,2.07,0.39,0.13,2.15,659.96,761.86,0,23,1
7.64,4.42,1.35,0.56,0.23,1.78,570.61,666.10,0,23,1
8.49,3.55,0.27,0.40,-0.32,1.76,457.46,521.75,0,23,1
11.27,1.75,-0.06,0.03,0.32,0.89,439.62,485.63,0,23,1
9.16,1.82,1.69,-0.17,0.23,-0.11,1263.91,1765.77,1,23,1
9.66,2.84,0.39,-0.09,-0.06,0.01,935.07,1128.24,0,24,1
9.57,3.07,0.86,-0.06,0.08,-0.02,1921.62,2098.04,1,24,1
9.75,2.98,0.48,-0.03,0.04,0.07,1300.61,1480.35,1,24,1
9.71,2.86,0.57,-0.10,0.05,0.01,1059.27,1175.22,0,25,1
9.59,2.96,0.69,-0.09,-0.02,-0.02,743.13,851.57,0,25,1
9.91,2.84,0.86,-0.07,-0.13,-0.07,506.30,585.76,0,25,1
10.70,2.10,0.85,-0.13,-0.01,-0.67,531.31,624.27,0,25,1
8.47,2.67,0.36,-0.37,0.07,-1.71,552.59,624.31,0,25,1
6.65,4.13,0.45,-0.77,-0.43,-1.96,506.66,594.10,0,25,1
5.59,5.44,1.46,-0.87,-0.03,-2.13,502.19,548.75,0,25,1
3.72,7.44,1.01,-0.62,-0.13,-2.27,517.99,577.57,0,25,1
1.35,8.89,1.22,-0.66,0.12,-2.35,653.25,795.07,0,25,1
-1.00,9.26,2.62,-0.75,0.11,-2.32,963.03,1252.03,0,25,1
-3.94,9.51,3.79,-0.66,0.24,-1.90,1187.54,1538.74,1,25,1
-3.90,11.04,2.59,0.13,0.19,1.26,1315.40,1573.21,1,25,1
-2.52,10.79,3.01,0.18,0.10,2.16,1213.64,1402.14,1,25,1
-1.06,9.52,2.95,0.14,0.09,2.59,920.99,1044.97,0,26,1
1.24,7.86,3.06,0.44,-0.10,2.76,858.21,926.19,0,26,1
4.15,5.91,1.72,0.83,-0.15,2.90,606.54,691.14,0,26,1
7.80,3.94,1.09,0.79,0.01,2.48,671.35,787.71,0,26,1
9.47,3.21,0.35,0.55,0.26,1.46,498.40,551.04,0,26,1
9.43,2.97,-0.67,0.15,0.17,1.06,488.61,571.53,0,26,1
10.42,2.03,0.67,-0.15,0.17,0.52,391.69,442.24,0,26,1
10.09,1.72,1.09,-0.08,0.08,0.03,604.45,937.13,0,26,1
.26,3.04,0.50,-0.10,0.07,-0.10,1842.38,2172.33,1,26,1
9.70,2.87,0.49,-0.09,0.04,0.05,1354.61,1576.05,1,26,1
9.66,2.78,0.71,-0.11,0.05,0.02,848.45,938.53,0,27,1
9.70,2.79,0.52,-0.11,-0.05,-0.01,596.47,671.44,0,27,1
10.15,2.39,0.69,-0.14,-0.18,-0.26,511.39,578.97,0,27,1
9.96,2.20,0.64,-0.23,-0.46,-0.88,499.86,565.27,0,27,1
8.05,2.76,0.09,-0.45,-0.30,-1.48,502.67,581.35,0,27,1
7.47,4.81,-0.08,-0.79,-0.52,-1.66,519.16,617.31,0,27,1
6.24,6.34,0.21,-0.80,-0.30,-1.93,534.21,609.11,0,27,1
3.77,7.54,-0.11,-0.69,0.04,-2.21,489.10,555.64,0,27,1
1.69,9.08,0.22,-0.71,0.18,-2.42,515.87,632.64,0,27,1
-0.05,9.91,1.87,-0.58,0.15,-2.02,1111.34,1507.57,1,27,1
-3.14,11.54,2.10,-0.00,0.23,0.87,1004.33,1279.81,0,28,1
-2.15,11.34,1.78,0.08,0.40,1.83,1282.64,1586.37,1,28,1
-0.45,10.05,2.05,0.14,0.25,2.48,1202.29,1401.37,1,28,1
-0.45,10.05,2.05,0.14,0.25,2.48,1049.68,1197.55,0,29,1
2.28,8.40,2.86,0.34,0.07,2.60,931.80,989.36,0,29,1
4.28,7.07,1.39,0.42,0.19,2.36,619.18,706.85,0,29,1
6.00,4.83,1.02,0.32,0.19,1.91,634.16,757.61,0,29,1
7.92,3.83,0.85,0.29,0.26,1.31,520.95,586.62,0,29,1
8.14,3.26,1.08,0.20,0.07,1.17,428.04,494.44,0,29,1
10.07,2.16,0.24,0.04,-0.13,0.72,345.32,388.61,0,29,1
9.93,2.79,0.47,-0.31,0.02,0.07,1200.36,1818.04,1,29,1
10.28,3.82,0.36,-0.32,0.09,0.02,1470.59,1798.93,1,29,1
9.23,3.72,0.54,-0.46,0.34,0.09,787.82,941.00,0,30,1
9.50,2.96,0.95,-0.60,0.37,0.22,612.31,705.29,0,30,1
9.45,2.52,1.20,-0.34,0.19,0.08,496.77,568.61,0,30,1
9.29,2.77,1.94,-0.25,0.11,0.07,428.45,477.68,0,30,1
9.58,2.64,1.75,-0.12,0.03,0.13,423.62,482.01,0,30,1
9.71,2.60,1.87,-0.03,0.06,0.10,562.86,789.55,0,30,1
9.54,2.53,1.63,-0.05,0.05,0.13,1292.40,1668.13,1,30,1
9.75,2.51,1.59,-0.02,0.07,0.08,775.79,959.24,0,31,1
9.42,2.27,1.63,-0.09,0.02,0.11,1569.48,1832.57,1,31,1
9.56,1.91,1.71,-0.08,0.04,0.03,909.33,1043.39,0,32,1
9.65,1.95,1.82,-0.06,0.04,-0.01,682.13,791.27,0,32,1
9.63,2.22,1.88,-0.08,0.08,-0.02,623.93,693.34,0,32,1
9.61,2.14,1.76,-0.10,0.06,0.00,665.35,734.75,0,32,1
9.53,2.14,1.82,-0.07,0.08,0.01,709.25,807.73,0,32,1
9.63,2.21,1.78,-0.05,0.05,-0.00,711.53,800.43,0,32,1
9.62,2.26,1.70,-0.04,0.03,0.03,668.76,744.40,0,32,1
9.65,2.18,1.64,-0.07,0.06,0.02,709.75,796.37,0,32,1
9.61,2.24,1.73,-0.07,0.02,0.02,717.59,801.01,0,32,1
9.55,2.13,1.88,-0.05,0.01,0.01,661.75,728.16,0,32,1
