ax,ay,az,gx,gy,gz,mav,rms,label_kontraksi,repetisi,id_orang
-3.75,-4.52,7.13,-0.06,0.10,0.04,0.00,0.00,0,51,1
-3.75,-4.57,7.11,-0.08,0.05,0.03,0.00,0.00,0,51,1
-3.69,-4.55,7.13,-0.09,0.03,-0.01,0.00,0.00,0,51,1
-3.58,-4.70,7.09,-0.07,-0.01,0.03,0.00,0.00,0,51,1
-3.71,-4.60,7.10,-0.04,0.01,0.01,0.00,0.00,0,51,1
-3.60,-4.60,7.09,-0.07,0.03,0.01,0.00,0.00,0,51,1
-3.82,-4.56,7.13,-0.09,0.02,0.05,0.00,0.00,0,51,1
-3.80,-4.63,7.02,-0.07,-0.03,0.07,0.00,342.96,0,51,1
-3.75,-4.57,7.09,-0.02,0.02,0.04,0.00,338.26,0,51,1
-3.80,-4.52,7.15,-0.07,0.03,0.00,0.00,0.00,0,51,1
-3.77,-4.53,7.06,-0.05,0.05,0.03,0.00,0.00,0,51,1
-3.79,-4.52,7.12,-0.07,0.02,0.02,0.00,0.00,0,51,1
-3.76,-4.53,7.10,-0.08,0.05,0.03,0.00,0.00,0,51,1
-3.86,-4.53,7.08,-0.05,0.03,0.01,0.00,0.00,0,51,1
-3.67,-4.55,7.08,-0.06,0.05,0.01,0.00,0.00,0,51,1
-3.87,-4.51,7.12,-0.06,0.04,0.01,0.00,0.00,0,51,1
-3.81,-4.52,7.11,-0.07,0.06,0.03,0.00,0.00,0,51,1
-3.85,-4.54,7.11,-0.06,0.05,0.02,0.00,0.00,0,51,1
-3.74,-4.52,7.07,-0.06,0.04,0.02,0.00,0.00,0,51,1
-3.85,-4.50,7.14,-0.06,0.05,0.01,0.00,0.00,0,51,1
-3.82,-4.53,7.11,-0.05,0.04,0.01,0.00,0.00,0,51,1
-3.77,-4.51,7.11,-0.07,0.04,0.02,0.00,0.00,0,51,1
-3.76,-4.51,7.08,-0.06,0.01,0.00,0.00,0.00,0,51,1
-3.77,-4.52,7.11,-0.07,0.05,0.02,0.00,0.00,0,51,1
-3.80,-4.51,7.13,-0.07,0.04,0.02,0.00,0.00,0,51,1
-3.75,-4.52,7.10,-0.08,0.00,0.02,0.00,0.00,0,51,1
-3.73,-4.54,7.08,-0.07,0.05,0.02,0.00,0.00,0,51,1
-3.83,-4.52,7.12,-0.06,0.06,0.02,0.00,0.00,0,51,1
-3.79,-4.51,7.11,-0.07,0.06,0.03,0.00,0.00,0,51,1
-3.79,-4.51,7.08,-0.07,0.03,0.02,0.00,0.00,0,51,1
-3.75,-4.53,7.07,-0.06,0.06,0.03,0.00,0.00,0,51,1
-3.85,-4.52,7.11,-0.05,0.03,0.04,0.00,0.00,0,51,1
-3.80,-4.53,7.10,-0.06,0.04,0.03,0.00,0.00,0,51,1
-3.81,-4.44,7.15,-0.03,0.04,0.05,0.00,0.00,0,51,1
-3.75,-4.46,7.27,-0.15,0.04,0.04,0.00,0.00,0,51,1
-3.87,-4.88,6.97,-0.33,0.20,-0.12,0.00,0.00,0,51,1
-3.72,-5.35,7.19,-0.33,0.48,-0.08,0.00,0.00,0,51,1
-6.18,-6.96,7.06,0.12,0.60,0.37,0.00,0.00,0,51,1
-7.45,-7.09,7.36,0.38,0.83,1.80,0.00,0.00,0,51,1
-6.72,-3.79,6.51,0.34,0.82,2.55,0.00,0.00,0,51,1
-6.24,-0.12,6.58,0.40,-0.09,2.06,0.00,0.00,0,51,1
-6.00,1.13,5.29,0.74,0.11,1.60,0.00,0.00,0,51,1
-5.35,2.04,4.42,0.61,-0.06,1.24,0.00,0.00,0,51,1
-3.72,3.22,3.30,-0.05,-0.15,0.45,0.00,0.00,0,51,1
-4.20,2.74,5.04,-0.79,-0.18,-0.55,0.00,0.00,0,51,1
-6.43,2.22,6.52,-0.61,0.40,-0.61,0.00,0.00,0,51,1
-7.13,2.81,8.65,0.15,0.04,-0.44,0.00,0.00,0,51,1
-7.26,3.26,8.55,1.42,0.61,-0.04,0.00,0.00,0,51,1
-8.28,3.40,4.85,2.04,1.84,0.62,0.00,0.00,0,51,1
-9.10,4.85,1.83,1.49,1.66,1.59,0.00,0.00,0,51,1
-8.40,7.26,0.17,0.73,1.06,2.06,0.00,0.00,0,51,1
-5.77,8.13,-1.11,0.21,-0.11,2.49,0.00,0.00,0,51,1
-3.10,7.65,-1.39,-0.23,-0.60,2.53,410.69,532.57,0,51,1
0.50,7.01,-0.10,-0.61,-0.88,1.82,311.44,379.39,0,51,1
1.71,7.51,1.44,-0.89,-0.54,0.85,0.00,0.00,0,51,1
2.57,8.90,1.94,-0.73,-0.60,0.26,314.39,375.87,0,51,1
2.30,9.18,2.57,-0.51,-0.66,-0.12,315.10,357.67,0,51,1
2.07,9.31,2.19,-0.29,-0.24,-0.25,0.00,335.76,0,51,1
1.40,9.44,2.45,-0.19,-0.15,-0.16,316.59,388.58,0,51,1
1.46,9.15,2.44,-0.07,0.04,0.00,328.44,387.92,0,51,1
1.48,9.02,2.66,-0.10,0.10,-0.06,392.95,448.85,0,51,1
1.08,9.33,2.93,-0.09,0.13,-0.01,375.06,420.93,0,51,1
1.41,8.97,2.94,-0.09,0.12,0.04,360.35,394.06,0,51,1
1.20,9.00,3.32,-0.11,-0.01,0.04,355.39,397.61,0,51,1
1.60,8.88,3.07,-0.04,-0.10,0.06,399.30,445.67,0,51,1
1.87,8.97,2.76,-0.03,-0.15,0.07,390.32,445.68,0,51,1
1.78,8.97,2.47,-0.00,-0.05,-0.01,360.25,413.17,0,51,1
1.49,9.09,2.45,-0.05,0.08,0.00,370.05,418.38,0,51,1
1.42,9.16,2.81,-0.00,0.05,0.03,387.90,429.41,0,51,1
1.39,9.22,2.72,-0.01,0.06,0.03,371.73,423.29,0,51,1
1.60,9.12,2.75,-0.07,-0.02,0.04,387.06,446.12,0,51,1
1.70,9.04,2.44,-0.06,0.05,0.01,389.36,435.98,0,51,1
1.61,9.11,2.48,-0.09,0.05,0.00,352.42,396.64,0,51,1
1.63,9.11,2.56,-0.06,0.10,-0.02,365.83,430.32,0,51,1
1.55,9.08,2.64,-0.08,0.06,-0.03,364.05,418.85,0,51,1
1.38,9.16,2.75,-0.07,0.05,-0.03,431.02,510.08,0,51,1
1.36,9.17,2.59,-0.09,0.07,-0.03,433.04,478.81,0,51,1
1.33,9.14,2.77,-0.08,0.07,-0.02,419.96,470.74,0,51,1
1.30,9.20,2.63,-0.05,0.07,0.02,423.29,481.64,0,51,1
1.22,9.15,2.68,-0.09,0.05,0.02,428.75,481.45,0,51,1
1.27,9.10,2.74,-0.06,0.04,0.02,402.26,450.52,0,51,1
1.31,9.09,2.62,-0.07,0.03,-0.01,406.93,455.07,0,51,1
1.15,9.15,2.68,-0.07,0.08,-0.01,432.90,478.93,0,51,1
1.26,9.08,2.73,-0.08,0.06,-0.00,405.88,450.45,0,51,1
1.16,9.15,2.74,-0.08,0.09,-0.05,408.26,454.21,0,51,1
0.95,9.15,2.81,-0.07,0.08,0.00,457.44,512.55,0,51,1
1.07,9.11,2.73,-0.09,0.09,0.00,475.11,535.14,0,51,1
1.10,9.05,2.67,-0.09,0.10,-0.02,406.71,454.76,0,51,1
1.00,9.13,2.76,-0.07,0.12,-0.03,424.83,468.28,0,51,1
1.02,9.05,2.80,-0.08,0.09,0.01,432.62,486.95,0,51,1
0.95,9.05,2.88,-0.08,0.07,-0.03,425.34,474.19,0,51,1
0.82,9.22,2.72,-0.08,0.05,-0.04,437.65,490.25,0,51,1
0.76,9.24,2.80,-0.10,0.08,-0.02,444.82,501.53,0,51,1
0.61,9.15,2.87,-0.08,0.11,0.02,440.54,492.95,0,51,1
0.75,9.05,2.87,-0.10,0.08,0.04,429.97,487.62,0,51,1
3.08,8.01,4.26,-0.08,0.02,0.05,1774.64,2242.50,1,0,1
3.05,7.97,3.90,0.18,0.05,0.14,1354.10,1771.99,1,0,1
3.00,8.12,3.46,0.27,0.25,0.19,1308.04,1592.89,1,0,1
3.28,8.45,3.64,0.33,0.28,0.19,1297.76,1508.12,1,0,1
3.43,8.62,3.02,0.28,0.21,0.20,1335.29,1489.27,1,0,1
3.59,8.49,2.83,0.17,0.08,0.16,1329.09,1452.83,1,0,1
3.78,8.53,2.79,0.07,0.04,0.13,1305.19,1418.81,1,0,1
3.79,8.44,2.83,-0.05,-0.01,0.03,1250.91,1383.05,1,0,1
3.88,8.31,2.70,-0.09,-0.09,-0.02,1256.51,1403.51,1,0,1
4.03,8.50,2.47,-0.02,-0.00,-0.03,1251.50,1395.94,1,0,1
3.78,8.76,2.34,-0.01,0.09,0.00,1215.48,1355.60,1,0,1
3.55,8.81,2.62,-0.02,0.12,0.03,1229.08,1382.13,1,0,1
3.26,8.78,2.65,0.02,0.17,0.17,1227.26,1385.85,1,0,1
3.64,8.50,2.64,-0.02,0.14,0.20,1130.18,1253.36,0,1,1
3.83,8.34,2.77,-0.07,0.08,0.09,1077.86,1204.65,0,1,1
3.89,8.45,2.58,-0.09,0.02,0.04,1061.23,1192.50,0,1,1
3.88,8.61,2.55,-0.09,0.04,0.02,1087.86,1232.21,0,1,1
3.84,8.44,2.64,-0.07,0.08,0.05,1054.68,1175.39,0,1,1
3.84,8.44,2.61,-0.07,0.10,0.04,1085.67,1215.64,0,1,1
3.81,8.45,2.79,-0.09,0.07,0.04,1051.99,1171.86,0,1,1
3.93,8.47,2.75,-0.07,0.06,0.05,1031.49,1143.31,0,1,1
4.15,8.52,2.81,-0.06,0.01,-0.00,1062.16,1185.96,0,1,1
4.41,8.49,2.99,-0.04,-0.13,-0.16,1089.71,1222.06,0,1,1
6.52,8.56,3.09,0.10,-0.38,-0.89,1065.15,1188.57,0,1,1
3.79,9.05,2.24,0.18,0.09,-1.91,915.86,1049.08,0,1,1
-0.57,10.65,2.17,0.17,0.10,-1.87,794.34,898.33,0,1,1
-0.86,9.89,1.61,0.16,-0.60,-2.02,779.45,885.60,0,1,1
-3.49,6.62,1.67,0.12,-0.70,-2.56,647.98,733.95,0,1,1
-4.58,3.00,1.86,0.04,-0.53,-3.00,579.01,710.95,0,1,1
-7.49,2.06,1.93,0.47,-0.25,-2.52,561.56,645.02,0,1,1
-12.17,4.60,1.71,-0.01,0.53,-0.00,429.55,475.83,0,1,1
-8.92,4.51,1.34,-0.16,0.31,-0.00,305.19,348.30,0,1,1
-8.39,4.66,1.51,-0.14,-0.21,0.30,0.00,0.00,0,1,1
-7.70,4.65,1.76,-0.15,-0.00,0.36,0.00,0.00,0,1,1
-7.09,4.91,1.46,-0.14,-0.10,0.36,0.00,0.00,0,1,1
-8.90,4.57,2.17,-0.20,0.20,0.68,0.00,0.00,0,1,1
-7.58,3.71,2.32,-0.28,0.18,2.47,0.00,0.00,0,1,1
-5.02,5.40,1.48,-0.43,0.55,2.85,372.19,456.99,0,1,1
-2.78,8.47,1.84,-0.50,0.55,2.52,719.20,958.72,0,1,1
0.40,9.55,2.35,-0.35,0.42,2.07,1859.86,2206.22,1,1,1
6.72,8.73,3.02,-0.09,0.42,-0.03,1762.18,1923.15,1,1,1
2.59,8.41,2.94,-0.02,0.00,0.06,1539.70,1644.59,1,1,1
4.24,8.35,3.00,-0.06,-0.16,0.13,1445.61,1532.84,1,1,1
3.36,8.37,3.06,-0.12,0.10,-0.05,1347.64,1450.32,1,1,1
3.85,8.34,2.85,-0.06,0.08,-0.04,1230.05,1361.82,1,1,1
3.60,8.46,2.94,-0.10,-0.03,0.08,1266.74,1410.86,1,1,1
3.93,8.48,3.06,-0.09,0.08,0.04,1267.00,1409.50,1,1,1
3.96,8.42,2.88,-0.08,-0.02,0.02,1224.28,1364.20,1,1,1
4.84,8.45,3.11,-0.07,-0.29,-0.15,1261.77,1422.71,1,1,1
6.51,8.74,3.27,0.00,-0.32,-1.24,1170.87,1295.08,0,2,1
4.67,8.72,3.21,0.03,0.04,-2.20,1255.01,1402.56,1,2,1
0.75,7.78,3.18,0.34,0.30,-2.91,1413.52,1567.40,1,2,1
-3.55,6.28,2.21,0.49,-0.36,-3.24,1378.91,1581.34,1,2,1
-7.51,3.00,1.58,0.62,-0.05,-3.18,1350.85,1457.15,1,2,1
-9.18,2.35,1.36,0.44,-0.89,-2.42,1045.08,1135.35,0,3,1
-10.30,2.68,1.20,0.02,0.12,-0.91,830.01,912.05,0,3,1
-9.35,3.01,1.73,-0.11,-0.13,-0.02,563.11,625.74,0,3,1
-9.26,3.13,1.61,-0.07,0.14,0.03,408.02,452.83,0,3,1
-8.94,3.02,1.61,-0.06,0.00,0.11,372.06,437.31,0,3,1
-8.63,3.20,1.36,-0.05,0.03,0.12,0.00,0.00,0,3,1
-9.21,3.12,1.46,-0.15,0.03,0.39,0.00,0.00,0,3,1
-11.19,2.93,1.72,-0.32,0.24,2.04,0.00,0.00,0,3,1
-8.37,3.55,1.55,-0.49,-0.34,3.10,0.00,0.00,0,3,1
-4.34,5.19,2.56,-0.39,-0.26,3.21,376.05,469.07,0,3,1
-0.57,6.69,2.92,-0.13,0.06,2.88,693.37,947.49,0,3,1
2.05,7.93,2.59,0.11,-0.09,2.50,1865.81,2202.28,1,3,1
8.71,7.72,1.23,0.01,1.09,-0.22,1645.53,1824.91,1,3,1
4.53,7.77,2.63,-0.14,-0.32,0.21,1524.66,1658.20,1,3,1
6.03,7.81,2.17,-0.06,0.38,-0.07,1499.29,1598.12,1,3,1
5.47,7.74,2.46,-0.10,-0.06,0.06,1384.13,1522.08,1,3,1
5.45,7.80,2.35,-0.07,0.01,0.00,1398.46,1536.33,1,3,1
5.38,7.71,2.68,-0.10,-0.03,0.03,1319.29,1450.12,1,3,1
5.41,7.70,2.55,-0.06,0.01,0.06,1398.00,1510.34,1,3,1
5.20,7.73,2.63,-0.10,0.05,-0.00,1390.17,1508.32,1,3,1
5.80,7.80,2.49,-0.09,-0.02,-0.11,1402.72,1503.57,1,3,1
7.62,7.87,2.31,-0.17,-0.24,-0.58,1419.55,1510.44,1,3,1
6.59,7.89,2.80,-0.13,0.78,-1.64,1426.84,1537.17,1,3,1
3.95,8.07,2.68,0.03,0.21,-2.37,1415.06,1525.95,1,3,1
0.50,7.38,2.84,0.03,0.40,-2.94,1341.46,1452.20,1,3,1
-3.60,6.18,3.24,0.18,-0.58,-3.21,1304.36,1520.85,1,3,1
-5.84,4.42,3.52,0.19,0.15,-3.35,1326.13,1435.06,1,3,1
-8.87,0.72,2.25,0.18,-0.24,-3.29,1001.11,1083.53,0,4,1
-12.22,1.87,1.41,0.14,0.85,-1.18,700.17,796.87,0,4,1
-8.80,2.06,2.32,-0.12,-0.03,-0.30,672.08,752.93,0,4,1
-9.40,2.29,2.73,-0.12,-0.08,-0.00,559.70,725.21,0,4,1
-8.73,2.05,2.55,-0.06,0.03,0.11,512.50,720.92,0,4,1
-8.52,1.94,2.09,-0.06,0.13,0.05,362.85,444.97,0,4,1
-11.20,2.04,2.26,-0.17,0.15,0.86,0.00,0.00,0,4,1
-9.82,0.85,2.41,-0.24,0.00,2.66,0.00,0.00,0,4,1
-7.35,4.40,1.64,-0.27,0.64,3.22,0.00,0.00,0,4,1
-4.72,6.27,2.40,-0.54,0.41,3.01,392.49,493.18,0,4,1
-1.76,7.65,2.75,-0.27,-0.00,2.81,580.46,717.29,0,4,1
1.64,8.57,2.14,-0.07,-0.68,2.81,788.89,1055.91,0,4,1
6.05,7.50,2.46,0.25,-0.54,2.39,1086.40,1450.61,1,4,1
5.43,8.17,2.33,0.05,0.25,0.03,1800.08,2034.19,1,4,1
3.91,8.39,2.28,-0.18,0.23,0.01,1475.39,1643.19,1,4,1
4.81,8.34,1.97,-0.01,0.10,0.07,1437.71,1533.59,1,4,1
4.65,8.29,2.27,-0.08,0.07,0.03,1300.48,1400.03,1,4,1
5.16,8.22,2.17,-0.06,-0.03,0.03,1276.03,1401.07,1,4,1
5.47,8.44,1.72,-0.11,-0.30,-0.18,1203.42,1338.52,1,4,1
7.20,8.49,1.74,-0.23,-0.15,-0.92,1222.18,1387.86,1,4,1
5.32,8.70,1.49,-0.37,0.19,-1.95,1228.76,1380.13,1,4,1
2.42,7.87,2.98,-0.47,0.25,-2.51,1474.00,1636.26,1,4,1
-2.07,7.08,2.06,-0.04,0.16,-2.96,1386.16,1609.40,1,4,1
-5.64,6.05,2.49,-0.04,-0.17,-2.94,1133.04,1303.42,0,5,1
-7.90,4.50,2.62,-0.06,-0.20,-2.59,996.82,1081.28,0,5,1
-7.86,2.48,2.93,-0.06,-0.06,-2.20,679.99,759.68,0,5,1
-9.44,1.25,2.94,-0.08,-0.18,-1.81,693.75,886.30,0,5,1
-10.30,1.79,3.21,-0.16,-0.40,-0.29,799.30,1030.21,0,5,1
-9.66,1.78,3.46,-0.07,-0.13,0.07,569.76,621.15,0,5,1
-8.55,1.47,3.44,-0.05,-0.01,0.10,485.08,616.00,0,5,1
-8.15,1.71,3.00,-0.01,0.33,-0.03,400.45,461.52,0,5,1
-8.22,1.74,3.04,-0.07,0.08,0.03,322.05,404.70,0,5,1
-10.83,1.95,3.45,-0.02,0.22,0.81,0.00,305.09,0,5,1
-10.17,1.10,3.44,0.07,0.32,2.15,0.00,0.00,0,5,1
-8.55,2.53,2.70,0.08,0.63,3.04,0.00,0.00,0,5,1
-5.19,4.56,2.38,-0.21,0.21,3.24,0.00,345.41,0,5,1
-2.05,7.09,2.34,-0.08,0.06,2.81,474.30,579.75,0,5,1
0.88,8.67,2.39,0.04,-0.15,2.38,747.97,930.84,0,5,1
3.79,8.59,2.06,0.18,-0.30,2.12,904.80,1167.43,0,5,1
5.49,8.36,2.37,0.28,0.02,1.80,1095.58,1351.09,0,5,1
8.09,8.48,1.31,0.01,0.50,0.02,1119.30,1339.49,0,5,1
2.50,8.32,2.51,-0.21,-0.02,0.06,1287.50,1518.29,1,5,1
4.55,8.34,2.25,-0.05,0.08,0.06,1376.10,1556.91,1,5,1
4.31,8.50,2.26,-0.08,0.04,-0.02,1306.98,1449.30,1,5,1
4.62,8.37,2.07,-0.07,-0.08,0.07,1305.46,1432.35,1,5,1
4.68,8.54,2.16,-0.06,-0.09,-0.07,1359.09,1518.56,1,5,1
5.50,8.71,2.13,-0.09,-0.14,-0.36,1306.47,1460.42,1,5,1
6.56,8.68,1.61,-0.26,0.30,-1.37,1512.75,1608.41,1,5,1
3.17,8.57,2.06,-0.31,0.34,-1.94,1456.55,1560.74,1,5,1
0.88,8.21,2.66,-0.31,0.06,-2.14,1281.20,1419.05,1,5,1
-2.60,7.65,3.54,-0.20,-0.15,-2.25,1219.23,1402.97,1,5,1
-4.30,6.58,3.10,-0.06,-0.14,-2.11,1028.86,1157.76,0,6,1
-6.10,6.23,2.94,0.06,0.14,-1.98,782.98,920.19,0,6,1
-6.89,4.26,2.80,-0.21,-0.04,-2.13,612.27,703.78,0,6,1
-7.84,2.24,3.23,-0.33,-0.25,-2.20,584.12,669.17,0,6,1
-9.92,1.39,3.34,-0.09,0.54,-1.35,481.88,553.82,0,6,1
-10.61,2.06,3.17,-0.02,0.14,-0.05,426.71,487.57,0,6,1
-9.15,1.60,3.19,-0.06,0.03,0.02,420.38,597.36,0,6,1
-8.41,1.71,3.18,-0.03,0.04,0.11,439.48,668.32,0,6,1
-9.05,1.71,2.98,-0.07,0.08,0.26,0.00,0.00,0,6,1
-9.65,1.80,3.35,-0.10,-0.09,0.84,0.00,0.00,0,6,1
-9.51,1.57,4.19,0.02,-0.32,1.87,0.00,0.00,0,6,1
-7.59,3.47,3.75,0.21,0.13,2.85,362.31,454.33,0,6,1
-4.94,5.86,3.20,0.10,0.37,2.88,396.10,484.15,0,6,1
-2.28,7.26,2.70,0.37,0.10,2.50,471.98,580.97,0,6,1
-0.37,8.62,2.80,0.20,-0.12,2.34,423.62,534.97,0,6,1
3.40,8.54,2.35,0.27,0.03,2.03,647.59,807.39,0,6,1
5.15,8.73,1.95,0.40,0.11,1.36,713.70,880.36,0,6,1
7.13,9.37,1.25,0.01,0.27,0.16,725.72,902.66,0,6,1
1.86,8.87,2.73,-0.15,-0.04,0.06,635.53,750.75,0,6,1
4.00,8.73,1.81,0.03,-0.09,0.12,653.05,760.89,0,6,1
2.97,8.65,2.37,-0.14,0.03,-0.01,687.53,787.89,0,6,1
3.61,8.79,2.16,-0.00,-0.07,0.11,735.24,896.36,0,6,1
3.36,8.87,1.98,-0.10,0.01,0.04,775.82,925.35,0,6,1
3.57,8.60,2.20,-0.02,-0.01,0.04,751.15,855.54,0,6,1
3.69,8.83,2.05,-0.06,0.09,-0.06,837.62,1019.48,0,6,1
3.82,8.71,2.28,-0.03,-0.02,-0.14,855.67,999.06,0,6,1
5.94,9.18,1.45,-0.18,-0.21,-0.57,1017.30,1201.66,0,6,1
4.71,9.23,1.82,-0.33,-0.21,-1.27,1058.03,1283.49,0,6,1
2.29,9.33,2.42,-0.37,0.05,-1.89,1165.91,1375.86,0,6,1
-0.43,8.25,2.78,-0.31,-0.20,-2.22,949.61,1136.78,0,6,1
-4.02,6.71,2.92,-0.28,-0.15,-2.41,786.37,910.28,0,6,1
-6.40,5.38,2.64,-0.39,-0.28,-2.19,688.84,828.54,0,6,1
-5.31,5.08,4.17,-0.39,-0.17,-2.06,547.90,644.37,0,6,1
-6.87,2.24,4.31,-0.16,0.13,-2.45,482.90,545.50,0,6,1
-12.28,1.21,3.10,-0.02,0.66,-1.22,542.77,680.40,0,6,1
-8.05,2.09,3.38,-0.09,-0.38,0.03,403.07,457.15,0,6,1
-8.57,2.02,3.41,-0.08,-0.02,0.11,343.36,453.71,0,6,1
-9.50,1.90,3.61,-0.08,-0.09,0.45,0.00,0.00,0,6,1
-8.21,1.83,3.75,0.07,0.08,1.30,0.00,0.00,0,6,1
-8.25,3.92,2.73,0.21,0.83,2.29,0.00,0.00,0,6,1
-7.04,5.09,2.94,0.01,0.10,2.76,0.00,357.06,0,6,1
-4.14,5.02,3.22,0.20,0.11,2.71,412.68,501.71,0,6,1
-1.76,8.75,2.32,0.15,-0.27,2.44,554.73,682.41,0,6,1
1.05,8.53,2.11,0.11,0.04,2.15,575.80,671.12,0,6,1
2.89,8.62,2.43,0.36,-0.06,2.00,639.00,759.63,0,6,1
9.60,9.13,0.46,0.19,0.49,0.67,757.73,951.94,0,6,1
1.83,8.87,1.75,-0.36,0.17,-0.19,666.48,783.47,0,6,1
4.44,8.69,2.03,0.05,0.12,0.14,789.66,914.64,0,6,1
3.56,8.87,1.50,-0.20,0.08,-0.06,741.13,854.58,0,6,1
3.69,8.80,2.22,-0.06,-0.00,0.05,863.04,1009.66,0,6,1
3.45,9.07,1.79,-0.12,-0.01,0.03,921.11,1085.94,0,6,1
3.64,8.75,2.00,-0.10,0.03,0.01,765.95,867.09,0,6,1
3.58,8.89,1.93,-0.11,-0.00,-0.02,744.09,831.38,0,6,1
5.20,9.14,1.89,-0.15,-0.13,-0.28,823.86,917.89,0,6,1
3.71,9.06,2.26,-0.25,0.12,-0.97,944.21,1104.95,0,6,1
3.90,9.41,1.66,-0.16,-0.02,-1.35,1149.05,1418.01,1,6,1
-6.74,4.98,3.19,-0.04,-0.01,-2.56,806.12,927.54,0,7,1
-6.95,5.04,2.82,-0.02,-0.13,-2.03,682.97,771.01,0,7,1
-5.51,3.17,2.83,-0.21,-0.23,-2.55,472.71,572.00,0,7,1
-10.06,-1.35,3.77,-0.19,0.39,-2.83,457.64,556.41,0,7,1
-10.79,1.95,2.92,-0.26,-1.06,0.04,442.77,488.00,0,7,1
-10.34,0.96,3.83,-0.10,0.13,0.02,458.33,550.02,0,7,1
-8.61,1.46,3.46,-0.09,-0.10,0.20,399.76,542.41,0,7,1
-8.86,1.53,3.35,-0.06,0.12,0.40,0.00,0.00,0,7,1
-9.55,1.48,3.46,-0.00,-0.01,1.45,0.00,0.00,0,7,1
-9.11,1.86,3.65,0.17,0.27,2.77,0.00,0.00,0,7,1
-6.41,5.11,2.83,-0.01,0.36,2.97,0.00,378.28,0,7,1
-3.72,6.76,3.00,0.02,0.10,2.60,388.82,499.42,0,7,1
-0.88,8.25,3.01,0.10,-0.23,2.19,454.43,556.81,0,7,1
0.92,8.52,2.14,-0.02,0.12,1.78,515.55,621.60,0,7,1
1.68,8.95,4.06,0.16,-0.04,1.59,570.66,702.81,0,7,1
5.72,9.62,2.71,0.31,0.23,1.12,432.64,519.16,0,7,1
3.11,8.85,2.27,-0.14,0.22,-0.14,492.16,593.87,0,7,1
2.77,8.62,2.69,-0.01,0.09,0.19,645.25,859.61,0,7,1
3.45,8.90,2.09,-0.05,0.28,-0.03,554.77,678.34,0,7,1
2.55,8.62,3.31,-0.05,0.17,0.04,620.44,710.75,0,7,1
3.16,8.82,2.65,0.04,0.12,0.05,518.79,597.34,0,7,1
2.86,8.90,2.33,-0.09,0.01,0.02,542.86,627.67,0,7,1
3.32,8.89,2.09,-0.14,0.06,0.01,587.67,680.23,0,7,1
4.50,8.97,2.58,-0.11,-0.09,-0.17,551.30,642.19,0,7,1
5.53,9.02,2.29,-0.22,0.21,-0.84,583.62,678.96,0,7,1
0.16,8.91,3.17,0.08,0.27,-1.28,650.71,777.76,0,7,1
0.05,9.23,1.95,-0.02,0.04,-1.27,717.40,883.07,0,7,1
-0.18,8.91,2.23,-0.12,-0.48,-1.22,675.32,775.74,0,7,1
-1.52,8.17,2.40,-0.21,-0.02,-1.48,647.52,748.49,0,7,1
-3.00,7.93,3.17,-0.17,-0.22,-1.62,572.89,644.83,0,7,1
-3.46,7.06,3.01,-0.18,-0.22,-2.34,551.69,664.94,0,7,1
-5.63,3.11,2.78,-0.24,0.21,-3.35,501.18,562.14,0,7,1
-12.39,-0.94,4.66,-0.31,-1.08,-2.89,640.48,833.05,0,7,1
-9.57,1.45,3.36,-0.26,-0.55,-0.22,799.38,1055.08,0,7,1
-9.18,1.71,4.06,-0.05,0.14,0.18,618.03,790.82,0,7,1
-8.54,1.53,3.62,-0.08,0.13,0.15,452.23,513.43,0,7,1
-8.95,1.54,3.65,-0.10,0.02,0.66,344.11,453.76,0,7,1
-9.54,1.26,3.85,0.04,-0.12,1.89,327.93,444.30,0,7,1
-7.13,4.56,3.36,0.27,-0.09,2.43,370.21,473.68,0,7,1
-5.25,7.01,2.96,0.16,0.35,2.33,379.47,450.32,0,7,1
-2.89,7.28,2.89,0.10,-0.12,2.04,373.87,444.76,0,7,1
-2.52,7.75,3.05,0.11,0.07,1.82,438.63,513.92,0,7,1
-1.13,8.00,2.87,0.23,-0.10,1.90,543.38,632.14,0,7,1
-0.12,8.13,3.21,0.43,-0.07,2.31,603.45,708.60,0,7,1
9.38,8.17,0.67,0.65,0.04,2.15,701.61,868.51,0,7,1
3.74,8.86,0.66,-0.30,0.44,-0.65,901.90,1143.94,0,7,1
4.26,8.15,3.19,-0.05,-0.04,0.44,1028.65,1293.10,0,7,1
4.05,8.98,1.15,-0.06,0.21,-0.09,873.04,988.93,0,7,1
4.22,8.31,2.74,-0.10,0.19,0.12,975.12,1133.23,0,7,1
4.31,8.49,1.90,0.00,0.04,-0.05,990.02,1191.24,0,7,1
4.17,8.69,2.12,-0.10,-0.00,-0.02,1088.22,1255.03,0,7,1
4.69,8.74,2.00,-0.07,-0.09,-0.08,1126.23,1286.82,0,7,1
5.66,8.62,1.99,-0.21,-0.26,-0.55,1231.67,1435.94,1,7,1
0.22,8.92,2.39,-0.30,-0.12,-1.45,1153.56,1325.77,0,8,1
-2.30,8.35,3.34,-0.33,-0.00,-1.28,1012.80,1105.96,0,8,1
-1.81,8.69,2.91,-0.17,-0.07,-1.06,782.93,886.72,0,8,1
0.30,8.75,2.41,-0.35,-0.19,-1.56,774.37,859.19,0,8,1
-1.85,6.79,3.19,-0.39,-0.17,-2.57,691.97,807.37,0,8,1
-4.40,1.32,2.70,-0.54,0.08,-4.29,587.00,724.60,0,8,1
-14.40,-4.56,3.93,-0.14,1.47,-3.52,593.69,744.48,0,8,1
-7.50,0.33,3.59,-0.30,-1.74,0.21,599.54,759.85,0,8,1
-9.68,1.02,3.26,-0.08,-0.32,0.11,588.99,711.17,0,8,1
-8.48,0.74,3.67,-0.02,0.05,0.35,441.98,479.35,0,8,1
-10.10,0.90,3.73,0.05,0.05,1.12,0.00,318.00,0,8,1
-9.92,1.42,4.03,0.18,-0.02,2.16,0.00,0.00,0,8,1
-7.56,3.45,3.68,0.33,0.33,2.88,0.00,307.48,0,8,1
-5.22,6.57,2.49,0.22,0.25,2.89,378.35,469.44,0,8,1
-2.17,7.64,2.64,0.40,0.23,2.53,431.77,554.85,0,8,1
-0.42,8.04,2.23,0.44,0.18,2.33,517.11,645.01,0,8,1
2.53,8.83,1.39,0.57,0.35,2.12,877.17,1160.42,0,8,1
5.49,8.67,0.87,0.44,0.19,1.79,1082.54,1455.15,1,8,1
8.50,8.81,-0.20,0.07,0.30,-0.05,1714.82,1974.68,1,8,1
2.24,8.79,1.62,-0.23,-0.28,0.19,1552.50,1708.16,1,8,1
4.51,8.79,0.86,-0.10,0.03,-0.06,1464.86,1608.20,1,8,1
4.20,9.15,0.99,-0.12,-0.02,-0.09,1439.37,1586.06,1,8,1
4.58,9.00,0.97,-0.13,-0.09,-0.20,1407.78,1544.62,1,8,1
4.09,8.99,1.14,-0.15,0.12,-0.35,1498.18,1601.05,1,8,1
4.53,9.48,1.03,-0.17,-0.01,-0.50,1492.39,1572.60,1,8,1
4.87,9.22,0.78,-0.21,-0.11,-1.05,1429.66,1553.37,1,8,1
2.39,9.19,1.39,-0.23,0.25,-1.58,1334.27,1450.06,1,8,1
-0.37,9.02,1.31,-0.33,-0.16,-1.78,1266.68,1417.27,1,8,1
-2.68,8.44,1.95,-0.24,-0.21,-1.92,1027.48,1194.08,0,9,1
-3.59,7.47,2.71,-0.17,-0.67,-2.21,868.50,1018.63,0,9,1
-4.74,4.71,2.10,-0.00,0.43,-3.05,759.54,875.54,0,9,1
-7.08,0.05,1.68,-0.23,0.10,-3.77,574.53,645.97,0,9,1
-14.52,0.42,1.16,0.11,1.01,-1.35,509.99,553.31,0,9,1
-9.12,0.66,1.86,-0.27,-0.72,0.18,386.51,412.82,0,9,1
-9.76,1.01,2.26,-0.17,-0.05,0.07,0.00,0.00,0,9,1
-9.37,1.02,2.31,-0.11,0.10,0.34,0.00,0.00,0,9,1
-9.78,1.42,2.23,-0.05,0.16,0.68,0.00,0.00,0,9,1
-10.95,1.11,2.09,-0.07,0.26,1.91,0.00,0.00,0,9,1
-9.79,2.76,1.72,-0.07,-0.04,3.20,0.00,0.00,0,9,1
-5.77,5.34,1.51,-0.06,0.85,3.31,341.34,439.03,0,9,1
-1.83,6.99,1.42,-0.12,-0.46,3.14,454.77,592.52,0,9,1
1.05,8.54,1.55,0.12,-0.04,2.60,746.21,1000.63,0,9,1
3.32,8.40,1.28,0.29,-0.25,1.98,1109.47,1432.12,1,9,1
2.36,8.81,1.68,-0.24,-0.01,0.06,1948.90,2156.53,1,9,1
5.16,8.84,0.74,0.05,0.28,0.04,1550.84,1702.00,1,9,1
3.91,8.88,1.11,-0.14,0.13,-0.02,1495.48,1579.82,1,9,1
4.14,8.86,1.30,-0.02,0.04,0.00,1422.17,1513.64,1,9,1
4.39,9.03,0.84,-0.13,-0.00,-0.07,1307.82,1411.24,1,9,1
4.65,8.86,1.07,-0.17,0.13,-0.28,1291.59,1430.15,1,9,1
4.62,9.08,1.13,-0.21,0.05,-0.63,1311.04,1440.26,1,9,1
3.74,9.23,1.71,-0.23,-0.02,-1.03,1322.76,1439.79,1,9,1
3.14,9.14,1.47,-0.13,0.17,-1.54,1369.26,1486.06,1,9,1
0.78,8.62,1.59,-0.08,0.11,-2.17,1394.90,1540.65,1,9,1
-1.75,7.82,1.59,0.01,0.08,-2.65,1185.19,1393.57,0,10,1
-6.76,5.87,1.77,0.17,-1.03,-2.94,1047.33,1194.76,0,10,1
-9.10,3.27,1.40,0.39,0.03,-3.00,894.15,940.87,0,10,1
-9.73,0.19,1.30,0.27,-0.49,-2.95,704.46,728.34,0,10,1
-12.65,1.33,0.00,0.11,0.93,-0.46,440.09,470.20,0,10,1
-8.48,1.08,0.94,-0.21,-1.00,0.19,0.00,320.92,0,10,1
-9.85,1.16,1.80,-0.09,0.09,0.02,0.00,0.00,0,10,1
-9.02,1.31,1.19,-0.10,0.11,0.21,0.00,0.00,0,10,1
-11.10,1.04,1.12,-0.20,0.31,1.37,0.00,0.00,0,10,1
-11.24,2.21,1.14,-0.22,0.38,2.56,0.00,0.00,0,10,1
-8.52,4.02,1.16,-0.27,0.53,3.27,0.00,349.61,0,10,1
-4.10,6.66,0.67,-0.28,0.07,3.07,472.28,640.16,0,10,1
-1.10,7.97,0.76,-0.09,0.25,2.87,582.82,773.10,0,10,1
1.43,8.19,1.13,-0.06,-0.36,2.63,1073.88,1465.20,1,10,1
4.65,8.71,0.55,-0.18,1.01,-0.54,1481.08,1864.72,1,10,1
3.41,8.63,1.39,-0.20,-0.33,0.13,1468.75,1705.82,1,10,1
5.52,8.64,0.81,-0.03,0.18,0.03,1412.17,1575.58,1,10,1
4.30,8.46,1.31,-0.11,0.28,-0.02,1285.28,1442.22,1,10,1
4.79,8.72,1.32,-0.02,0.08,0.06,1363.16,1469.49,1,10,1
5.12,8.80,1.11,-0.11,-0.13,-0.08,1282.64,1430.61,1,10,1
6.42,8.78,1.04,-0.31,0.19,-0.52,1297.90,1436.57,1,10,1
4.96,8.54,1.76,-0.21,0.09,-1.28,1162.99,1315.45,0,11,1
2.87,8.67,1.40,-0.19,0.08,-1.76,1341.19,1440.21,1,11,1
0.93,8.87,0.97,0.02,0.20,-1.91,1322.86,1447.53,1,11,1
-0.89,8.52,0.74,0.13,0.46,-2.13,1321.75,1425.79,1,11,1
-3.66,7.86,0.97,0.27,0.38,-2.26,1136.94,1324.65,0,12,1
-5.43,5.73,1.19,0.32,0.13,-2.49,1006.07,1110.06,0,12,1
-4.86,2.97,0.79,0.18,0.14,-2.95,813.66,863.93,0,12,1
-8.37,-1.65,1.04,0.23,-0.64,-3.62,581.87,615.80,0,12,1
-15.59,2.62,0.60,0.04,1.18,0.12,390.08,426.16,0,12,1
-8.18,0.31,0.57,-0.06,-0.19,-0.13,0.00,312.48,0,12,1
-9.17,0.87,1.02,-0.15,-0.52,0.19,0.00,0.00,0,12,1
-9.44,0.75,1.05,-0.17,0.11,0.32,0.00,0.00,0,12,1
-11.18,1.05,0.83,-0.23,0.46,0.86,0.00,0.00,0,12,1
-11.24,0.94,0.79,-0.53,0.45,2.38,0.00,0.00,0,12,1
-9.47,2.98,0.89,-0.52,0.67,3.27,0.00,0.00,0,12,1
-5.78,5.34,0.41,-0.60,0.29,3.23,368.14,463.80,0,12,1
-2.79,7.40,0.91,-0.65,0.31,3.02,514.32,649.18,0,12,1
0.77,7.89,1.48,-0.46,-0.64,2.88,715.62,915.63,0,12,1
4.34,7.97,2.96,-0.24,-0.13,2.40,1076.05,1412.10,1,12,1
4.87,8.54,2.36,-0.00,-0.31,0.20,1894.56,2091.97,1,12,1
3.36,8.88,1.73,-0.07,0.22,-0.07,1559.99,1700.10,1,12,1
4.08,8.60,2.17,-0.07,-0.11,0.03,1481.37,1598.11,1,12,1
3.65,8.85,1.93,-0.06,0.07,-0.03,1475.08,1581.06,1,12,1
3.90,8.79,1.89,-0.12,-0.02,-0.06,1524.33,1612.93,1,12,1
4.28,8.79,1.81,-0.06,-0.05,-0.24,1478.08,1565.81,1,12,1
4.32,8.87,1.98,-0.09,-0.43,-0.68,1379.94,1500.99,1,12,1
4.14,9.05,1.60,-0.12,-0.23,-1.18,1450.85,1563.62,1,12,1
2.46,8.83,1.94,-0.08,-0.05,-1.64,1355.58,1479.91,1,12,1
0.98,8.75,1.20,-0.08,0.44,-2.14,1170.13,1335.70,0,13,1
-0.96,7.53,1.10,0.02,0.64,-2.58,954.21,1133.32,0,13,1
-6.33,5.36,0.80,0.43,0.50,-2.78,858.41,974.85,0,13,1
-6.10,6.36,0.02,0.42,-1.36,-2.34,730.88,792.56,0,13,1
-8.31,1.92,1.62,0.19,-0.40,-3.03,508.89,558.65,0,13,1
-11.07,-3.45,2.03,0.19,0.52,-3.12,415.96,455.22,0,13,1
-14.59,0.84,0.71,-0.15,0.20,0.03,314.00,338.26,0,13,1
-10.46,-0.58,1.28,-0.03,0.59,-0.11,0.00,356.45,0,13,1
-8.70,-0.23,1.41,-0.11,-0.22,0.15,0.00,349.59,0,13,1
-9.16,-0.43,1.50,-0.13,0.16,0.29,0.00,0.00,0,13,1
-11.63,-0.19,1.12,-0.25,0.14,1.29,0.00,0.00,0,13,1
-11.92,-0.58,1.14,-0.51,0.03,2.73,0.00,0.00,0,13,1
-9.15,2.56,1.03,-0.72,0.48,3.51,0.00,379.59,0,13,1
-6.15,5.08,1.52,-0.76,0.53,3.27,326.54,406.20,0,13,1
-1.98,6.93,1.68,-0.41,0.39,2.80,383.82,488.61,0,13,1
0.74,7.81,2.14,-0.26,-0.27,2.33,551.53,668.03,0,13,1
2.46,8.68,3.14,0.04,-0.46,1.74,661.79,825.59,0,13,1
6.09,9.75,1.91,0.10,-0.07,0.88,580.34,699.16,0,13,1
4.39,9.35,1.51,-0.21,0.15,-0.06,611.19,776.74,0,13,1
1.58,8.74,2.27,-0.14,0.07,0.07,604.75,687.83,0,13,1
3.38,9.04,1.84,-0.02,0.04,0.04,646.96,789.18,0,13,1
2.44,9.11,2.21,-0.06,0.01,0.03,625.33,691.14,0,13,1
2.74,9.18,2.05,-0.03,-0.02,0.08,688.28,789.62,0,13,1
2.76,9.12,1.90,-0.04,-0.02,0.05,627.80,718.80,0,13,1
2.97,9.04,1.83,-0.06,-0.04,-0.00,637.51,749.74,0,13,1
3.63,9.19,1.78,-0.07,-0.10,-0.14,694.61,808.02,0,13,1
3.84,9.22,1.95,-0.10,-0.36,-0.52,712.23,826.18,0,13,1
2.89,9.26,1.92,-0.15,-0.02,-1.02,764.31,908.24,0,13,1
2.14,9.60,1.39,-0.11,-0.31,-1.30,813.93,964.79,0,13,1
0.79,8.93,1.61,-0.26,-0.12,-1.68,795.74,896.47,0,13,1
-1.06,7.36,2.43,-0.39,0.05,-2.24,698.21,755.72,0,13,1
-2.76,6.35,2.44,-0.15,0.44,-3.03,597.62,656.57,0,13,1
-6.87,2.64,2.90,0.32,0.56,-3.55,496.51,573.79,0,13,1
-8.69,-2.19,1.94,0.16,-0.48,-3.82,433.44,476.60,0,13,1
-13.41,1.06,0.57,0.22,1.36,-0.79,346.65,382.56,0,13,1
-9.12,-0.06,1.63,-0.14,-0.98,-0.07,0.00,342.95,0,13,1
-9.52,0.40,2.35,-0.12,-0.28,0.16,0.00,325.91,0,13,1
-8.73,0.51,2.04,-0.07,0.10,0.32,0.00,0.00,0,13,1
-10.39,0.19,1.68,-0.16,0.43,0.56,0.00,0.00,0,13,1
-11.18,0.39,2.01,-0.29,0.12,1.78,0.00,0.00,0,13,1
-10.59,1.17,2.45,-0.23,0.17,2.74,0.00,0.00,0,13,1
-6.12,4.69,1.62,-0.27,0.28,3.02,0.00,333.71,0,13,1
-5.23,6.27,1.69,-0.30,0.88,2.66,431.93,563.56,0,13,1
-2.80,7.71,1.83,-0.33,-0.03,2.62,409.47,517.04,0,13,1
-0.85,8.16,2.66,-0.16,-0.71,2.49,564.04,724.70,0,13,1
3.21,8.57,2.15,0.21,-0.45,2.17,762.90,938.02,0,13,1
7.10,8.39,1.52,0.14,-0.11,1.38,1209.77,1557.19,1,13,1
4.60,8.84,1.63,-0.04,0.20,-0.06,1352.27,1700.19,1,13,1
3.42,8.74,2.09,-0.15,-0.00,-0.01,1329.62,1574.32,1,13,1
3.77,8.67,2.14,-0.06,0.11,-0.02,1243.17,1449.99,1,13,1
3.72,8.71,2.01,-0.07,0.04,-0.06,1296.28,1438.03,1,13,1
3.61,8.83,2.02,-0.10,0.01,-0.05,1305.30,1439.31,1,13,1
5.07,8.93,1.95,-0.12,-0.18,-0.28,1296.12,1418.91,1,13,1
4.92,9.01,2.21,-0.20,-0.36,-0.81,1316.99,1462.93,1,13,1
3.90,8.80,2.22,-0.23,-0.13,-1.56,1391.30,1512.06,1,13,1
2.23,8.25,1.95,-0.27,0.22,-2.33,1168.62,1298.79,0,14,1
-1.82,7.35,2.69,-0.12,0.03,-2.84,891.92,1051.45,0,14,1
-5.96,6.05,3.86,0.00,-0.62,-2.92,753.43,898.75,0,14,1
-6.41,3.54,1.97,0.15,-0.07,-3.01,633.57,717.06,0,14,1
-7.45,-0.07,1.38,0.02,-0.49,-3.22,583.36,659.68,0,14,1
-13.20,0.98,1.69,0.06,1.02,-0.84,481.20,540.58,0,14,1
-8.41,0.90,2.85,-0.07,-0.18,-0.25,401.22,476.48,0,14,1
-9.45,1.07,3.05,-0.09,-0.04,-0.03,0.00,318.14,0,14,1
-9.33,0.71,2.75,-0.05,0.21,0.21,0.00,393.04,0,14,1
-11.96,0.82,2.69,-0.05,0.26,1.41,0.00,0.00,0,14,1
-10.69,1.18,2.60,0.05,0.35,2.68,0.00,0.00,0,14,1
-7.21,4.98,1.61,-0.05,0.15,3.19,0.00,0.00,0,14,1
-4.72,5.46,2.11,-0.10,0.15,2.98,362.26,456.64,0,14,1
-2.50,7.66,2.10,-0.05,0.13,2.82,593.08,713.22,0,14,1
0.76,7.78,2.28,0.09,0.33,2.51,768.64,985.81,0,14,1
3.96,8.43,1.36,0.20,0.30,2.05,1805.92,2121.27,1,14,1
4.60,8.03,1.76,-0.18,0.25,-0.17,1752.66,1898.74,1,14,1
4.77,8.17,1.39,-0.13,0.19,-0.04,1508.94,1578.10,1,14,1
5.22,8.37,1.30,-0.04,0.13,-0.01,1303.94,1410.03,1,14,1
5.23,8.50,1.27,-0.08,-0.01,-0.06,1213.70,1335.85,1,14,1
5.21,8.56,1.22,-0.09,0.01,-0.11,1159.18,1300.98,0,15,1
5.98,8.17,1.15,-0.14,-0.22,-0.31,1158.93,1322.62,0,15,1
7.09,8.49,1.05,-0.26,0.03,-1.28,1179.20,1349.46,0,15,1
4.40,8.36,2.02,-0.27,0.11,-2.19,1282.35,1449.12,1,15,1
1.61,8.07,1.78,-0.18,0.28,-2.64,1385.56,1552.60,1,15,1
-0.70,7.03,0.84,-0.32,-0.08,-2.96,1432.84,1626.93,1,15,1
-5.93,4.38,3.07,-0.33,0.20,-3.13,1167.30,1280.73,0,16,1
-6.51,2.31,3.05,-0.23,0.02,-3.26,825.19,918.80,0,16,1
-10.80,-1.55,2.40,0.02,0.50,-2.95,661.75,797.35,0,16,1
-12.32,1.65,2.38,-0.18,-0.81,-0.21,743.98,918.20,0,16,1
-11.66,0.36,2.79,-0.06,0.14,-0.15,580.38,641.26,0,16,1
-9.69,0.64,2.68,-0.08,-0.20,0.16,503.64,550.23,0,16,1
-9.09,0.67,2.39,-0.07,0.13,0.27,370.78,425.90,0,16,1
-11.06,1.22,2.51,-0.08,-0.03,1.21,0.00,0.00,0,16,1
-11.12,2.21,3.08,-0.01,-0.05,2.05,0.00,0.00,0,16,1
-9.26,2.95,2.86,0.12,-0.04,2.84,0.00,0.00,0,16,1
-6.04,4.54,2.10,0.07,-0.01,3.22,306.12,372.74,0,16,1
-3.41,6.42,2.34,0.07,0.01,3.13,442.41,538.91,0,16,1
0.04,6.87,2.35,0.18,0.36,2.87,730.90,920.51,0,16,1
2.44,7.37,2.46,0.29,0.16,2.88,1674.09,2039.52,1,16,1
5.62,7.10,1.07,-0.29,0.09,-0.30,1565.18,1805.28,1,16,1
6.53,6.93,1.62,-0.07,-0.01,0.21,1414.68,1551.24,1,16,1
7.37,7.19,0.89,-0.04,0.00,-0.04,1264.85,1393.77,1,16,1
6.45,7.22,1.87,-0.09,-0.02,-0.00,1171.08,1332.05,0,17,1
7.24,7.33,1.41,-0.06,-0.10,-0.16,1160.14,1309.32,0,17,1
9.96,7.45,0.57,-0.30,-0.33,-0.89,1215.99,1351.26,1,17,1
7.49,6.95,1.10,-0.49,0.30,-2.38,1219.44,1367.59,1,17,1
3.23,6.96,2.17,-0.26,0.19,-2.99,1497.61,1637.86,1,17,1
-0.72,7.53,0.19,-0.31,0.13,-3.26,1373.22,1550.57,1,17,1
-3.49,6.06,1.70,-0.41,-0.55,-3.35,1178.12,1353.81,0,18,1
-6.65,3.68,2.35,-0.41,-0.09,-3.64,1097.71,1194.54,0,18,1
-9.24,-2.50,2.64,0.06,0.72,-3.80,823.97,920.63,0,18,1
-14.38,2.19,1.37,0.12,-0.05,-0.79,658.27,808.47,0,18,1
-11.09,0.06,1.86,-0.04,0.28,-0.42,567.08,681.06,0,18,1
-9.86,0.36,2.12,-0.12,-0.01,0.03,565.15,689.62,0,18,1
-9.50,0.38,1.82,-0.11,0.24,0.21,414.70,485.05,0,18,1
-12.29,0.57,2.06,-0.14,0.14,1.30,0.00,0.00,0,18,1
-12.70,1.04,2.04,-0.04,0.17,2.47,0.00,0.00,0,18,1
-9.39,2.67,1.95,0.05,-0.09,3.72,0.00,0.00,0,18,1
-5.04,4.29,1.75,0.03,-0.15,4.00,360.87,454.11,0,18,1
0.22,6.19,1.57,0.19,-0.08,3.64,604.13,796.40,0,18,1
3.34,6.89,1.13,0.39,0.10,3.15,1472.86,1877.62,1,18,1
10.04,6.78,0.59,-0.11,0.56,0.09,1777.47,2008.92,1,18,1
5.73,7.09,1.63,-0.18,-0.00,0.03,1438.67,1581.66,1,18,1
7.69,6.84,1.01,0.02,-0.18,0.02,1303.24,1401.67,1,18,1
6.39,7.06,1.30,-0.06,-0.17,-0.11,1176.00,1273.33,0,19,1
6.89,7.23,1.21,-0.02,-0.04,-0.02,1201.72,1302.35,1,19,1
6.68,7.17,1.13,-0.10,-0.05,-0.03,1141.07,1249.05,0,20,1
6.39,7.32,1.28,-0.12,0.33,-0.09,1144.35,1261.82,0,20,1
8.76,7.33,0.86,-0.11,-0.12,-0.37,1158.94,1286.20,0,20,1
8.94,7.26,0.82,-0.38,-0.16,-1.54,1240.91,1375.47,1,20,1
4.85,7.51,1.77,-0.34,0.19,-2.48,1285.72,1429.42,1,20,1
1.67,7.31,1.71,-0.21,0.18,-2.92,1392.83,1525.27,1,20,1
-1.73,7.08,1.84,-0.19,-0.62,-2.81,1325.25,1504.80,1,20,1
-2.83,6.54,1.55,-0.08,-0.27,-2.73,1140.47,1324.46,0,21,1
-4.58,4.92,1.21,-0.21,-0.10,-2.93,947.24,1071.22,0,21,1
-6.48,1.64,1.67,-0.23,-0.02,-3.19,780.50,851.16,0,21,1
-9.56,-1.84,1.94,-0.02,0.66,-3.06,698.83,845.86,0,21,1
-14.49,0.63,1.49,-0.04,0.17,-0.40,620.68,842.11,0,21,1
-12.23,-0.50,1.33,-0.09,0.12,-0.00,462.35,542.11,0,21,1
-9.61,-0.17,1.34,-0.09,0.22,0.22,477.45,585.45,0,21,1
-11.54,0.03,1.39,-0.08,0.51,0.74,0.00,308.88,0,21,1
-12.29,0.42,1.40,-0.08,0.49,1.80,0.00,0.00,0,21,1
-11.05,1.28,1.21,-0.07,-0.16,3.50,0.00,0.00,0,21,1
-7.30,3.74,1.03,-0.03,0.04,3.95,0.00,0.00,0,21,1
-3.43,5.05,0.53,-0.07,-0.02,3.71,394.06,488.09,0,21,1
-0.67,6.40,1.94,0.16,0.04,3.50,1297.12,1729.89,1,21,1
8.79,7.75,-0.69,-0.04,-0.03,0.30,1297.90,1624.32,1,21,1
6.14,7.63,0.32,-0.16,-0.16,0.05,1247.21,1525.84,1,21,1
6.77,7.69,0.15,-0.08,-0.14,0.02,1028.27,1162.45,0,22,1
6.13,7.65,0.43,-0.11,-0.03,-0.04,1165.52,1376.94,0,22,1
7.09,7.75,0.05,-0.05,0.02,-0.19,1292.61,1461.35,1,22,1
8.42,8.08,-0.19,-0.21,-0.26,-0.58,1281.92,1464.42,1,22,1
7.57,8.20,-0.24,-0.40,-0.14,-1.28,1238.71,1387.63,1,22,1
6.07,8.41,-0.14,-0.34,0.43,-1.89,1054.97,1176.31,0,23,1
2.75,8.45,0.58,-0.27,-0.01,-2.23,880.31,1022.42,0,23,1
-2.75,8.39,1.81,-0.12,0.23,-2.17,874.51,997.13,0,23,1
-3.89,7.87,1.51,-0.05,0.33,-1.84,861.58,969.94,0,23,1
-4.28,7.51,1.11,-0.01,0.26,-1.80,720.28,827.64,0,23,1
-4.79,6.18,1.22,-0.14,-0.15,-2.08,644.26,721.84,0,23,1
-6.54,3.84,1.62,-0.06,0.26,-2.62,474.82,553.03,0,23,1
-9.24,-0.62,1.24,0.13,0.32,-3.09,464.83,510.54,0,23,1
-13.31,-0.39,-0.05,0.19,0.67,-1.75,356.59,389.95,0,23,1
-10.99,-0.23,0.25,-0.20,-0.88,-0.07,497.80,768.64,0,23,1
-9.95,-0.14,0.96,-0.08,-0.08,0.06,411.98,590.41,0,23,1
-8.90,-0.28,0.88,-0.02,0.18,0.09,0.00,307.70,0,23,1
-10.42,-0.06,0.63,-0.05,0.48,0.20,0.00,0.00,0,23,1
-12.59,0.33,0.98,-0.13,0.36,1.28,0.00,0.00,0,23,1
-12.94,1.10,0.57,-0.15,0.44,2.60,0.00,0.00,0,23,1
-8.76,2.20,0.47,-0.14,0.11,3.84,0.00,0.00,0,23,1
-4.41,5.48,0.10,-0.35,1.01,3.70,301.46,383.85,0,23,1
-1.59,6.16,0.40,-0.21,0.46,3.45,687.45,907.21,0,23,1
1.44,6.82,0.90,-0.07,-0.42,3.26,1432.87,1835.72,1,23,1
6.84,8.03,0.49,-0.11,0.02,-0.03,1291.64,1529.73,1,23,1
6.73,8.27,0.05,-0.14,-0.04,0.04,1017.52,1218.52,0,24,1
6.71,7.80,0.53,-0.12,0.09,-0.09,1047.91,1231.72,0,24,1
5.92,8.02,0.82,-0.12,0.00,-0.29,1194.55,1351.55,0,24,1
6.50,8.27,0.89,-0.12,-0.06,-0.77,1155.03,1304.04,0,24,1
5.93,8.71,0.13,-0.26,-0.20,-1.33,1039.43,1179.71,0,24,1
2.70,8.80,1.05,-0.20,-0.25,-1.67,986.72,1122.24,0,24,1
0.07,9.13,1.27,-0.08,-0.34,-1.60,867.73,993.83,0,24,1
0.34,9.08,0.15,-0.19,0.06,-1.82,741.69,861.47,0,24,1
-2.64,7.95,1.48,-0.24,-0.08,-1.92,714.53,845.13,0,24,1
-3.95,7.19,1.63,-0.13,-0.10,-1.91,606.56,693.38,0,24,1
-3.87,6.28,1.78,-0.12,-0.00,-2.47,536.50,618.67,0,24,1
-7.68,1.12,2.47,0.15,0.78,-3.20,485.64,533.64,0,24,1
-8.16,-1.31,1.24,0.09,-0.34,-3.48,393.18,463.81,0,24,1
-16.66,0.98,0.30,0.18,0.52,-0.57,398.24,515.09,0,24,1
-11.27,-0.89,0.46,-0.01,0.10,-0.10,435.87,586.26,0,24,1
-9.39,-0.23,0.76,-0.05,0.04,0.13,491.90,635.65,0,24,1
-9.29,-0.44,0.80,-0.07,0.09,0.04,352.23,443.43,0,24,1
-10.53,-0.42,0.86,-0.13,0.22,0.29,0.00,353.93,0,24,1
-12.39,0.33,0.74,-0.15,0.00,1.60,0.00,0.00,0,24,1
-12.84,-0.37,0.90,-0.20,-0.05,3.38,0.00,0.00,0,24,1
-7.25,1.98,0.71,-0.14,-0.06,4.28,0.00,0.00,0,24,1
-2.76,4.48,1.21,-0.14,-0.27,3.85,375.13,503.61,0,24,1
-0.17,6.64,0.48,0.10,0.10,3.36,909.05,1276.08,0,24,1
4.97,7.36,0.53,0.24,0.23,2.91,1509.71,1929.52,1,24,1
4.27,7.64,0.92,-0.30,-0.15,0.07,1437.50,1717.81,1,24,1
6.73,7.58,0.47,0.07,-0.21,0.17,1374.85,1570.47,1,24,1
6.34,7.67,0.10,-0.20,-0.02,0.01,1420.84,1570.81,1,24,1
6.74,7.49,0.98,-0.05,-0.04,-0.01,1368.39,1515.91,1,24,1
9.99,8.33,-0.63,-0.42,-0.25,-0.99,1372.44,1505.01,1,24,1
5.45,8.27,1.13,-0.26,0.07,-1.54,1344.04,1493.96,1,24,1
4.15,8.29,0.62,-0.12,0.22,-2.00,1083.06,1245.11,0,25,1
1.21,8.22,1.17,-0.22,0.22,-2.26,956.11,1124.12,0,25,1
-1.88,7.60,2.01,-0.22,0.30,-2.37,944.41,1048.08,0,25,1
-4.18,6.53,1.80,0.06,-0.20,-2.81,823.90,945.05,0,25,1
-5.74,3.80,1.73,-0.02,-0.18,-3.13,670.61,765.09,0,25,1
-7.35,1.57,1.17,-0.03,-0.36,-3.46,609.34,701.96,0,25,1
-12.30,-1.36,1.80,0.06,0.18,-2.97,517.82,606.39,0,25,1
-13.61,0.04,1.48,-0.13,-0.69,-0.37,451.71,519.71,0,25,1
-11.69,-0.07,1.47,-0.13,-0.19,0.15,379.48,430.83,0,25,1
-9.30,0.24,1.42,-0.08,-0.18,0.34,334.33,375.06,0,25,1
-8.93,0.09,1.53,-0.11,0.18,0.23,0.00,0.00,0,25,1
-11.35,0.61,1.64,-0.15,0.24,0.94,0.00,0.00,0,25,1
-11.91,1.33,2.20,-0.08,0.15,1.93,0.00,0.00,0,25,1
-11.12,2.57,0.99,-0.06,0.39,3.18,0.00,0.00,0,25,1
-7.46,3.63,1.19,-0.14,0.14,4.07,0.00,315.32,0,25,1
-1.38,4.81,1.61,0.14,0.10,3.98,582.57,809.16,0,25,1
2.30,6.57,0.79,0.26,0.56,3.37,1347.97,1794.04,1,25,1
4.10,8.48,0.39,-0.32,0.21,-0.31,1599.75,1934.33,1,25,1
6.39,7.72,1.44,-0.03,-0.23,0.35,1372.94,1603.64,1,25,1
5.67,7.95,0.67,-0.12,-0.16,0.02,1425.86,1568.69,1,25,1
5.96,7.74,1.30,-0.12,-0.18,0.15,1349.80,1477.54,1,25,1
8.24,7.95,0.55,-0.16,-0.31,-0.44,1311.21,1463.83,1,25,1
7.13,8.20,0.88,-0.24,-0.10,-1.21,1334.71,1460.14,1,25,1
4.46,8.05,1.40,-0.09,0.55,-1.99,1388.13,1525.22,1,25,1
0.94,8.03,1.07,-0.06,0.55,-2.29,1285.05,1435.07,1,25,1
-1.10,7.67,1.51,-0.26,-0.38,-2.22,1174.69,1341.68,0,26,1
-2.60,7.87,1.85,-0.26,0.19,-2.24,1017.34,1170.13,0,26,1
-3.98,6.78,1.52,-0.24,0.06,-2.59,810.03,941.75,0,26,1
-5.41,3.52,2.19,-0.14,-0.13,-3.08,724.32,805.96,0,26,1
-7.85,-0.17,1.75,-0.07,-0.04,-3.50,616.08,669.12,0,26,1
-16.00,1.22,0.54,0.19,1.36,-1.18,478.86,556.94,0,26,1
-10.85,0.12,1.30,-0.09,0.03,-0.20,466.99,532.47,0,26,1
-9.81,0.90,1.68,-0.12,-0.27,0.16,339.58,400.78,0,26,1
-9.05,0.54,1.48,-0.07,0.01,0.32,0.00,317.46,0,26,1
-9.92,1.04,0.98,-0.12,0.04,0.39,0.00,0.00,0,26,1
-12.13,1.44,1.58,-0.17,-0.14,1.53,0.00,0.00,0,26,1
-11.41,1.84,2.33,0.11,0.02,2.67,0.00,0.00,0,26,1
-8.83,3.41,1.54,0.14,-0.16,3.33,0.00,300.84,0,26,1
-4.22,5.79,0.42,0.10,-0.30,3.70,387.32,532.74,0,26,1
0.82,6.50,1.00,0.13,-0.31,3.29,678.46,909.51,0,26,1
2.07,7.11,0.62,0.22,-0.08,2.85,1428.54,1828.54,1,26,1
4.94,7.67,0.99,-0.22,0.38,-0.08,1563.62,1848.20,1,26,1
6.39,7.50,1.02,-0.03,0.09,0.15,1427.00,1638.97,1,26,1
6.22,7.86,0.51,-0.10,-0.00,-0.07,1354.84,1539.27,1,26,1
6.85,7.96,1.18,-0.12,-0.16,-0.14,1334.35,1489.26,1,26,1
8.51,8.28,0.09,-0.22,-0.22,-0.75,1358.23,1513.80,1,26,1
8.13,7.72,0.36,-0.45,0.30,-1.92,1392.03,1528.23,1,26,1
3.30,7.21,1.36,-0.30,0.45,-2.46,1387.67,1518.62,1,26,1
-0.15,7.53,1.66,-0.20,0.24,-2.58,1240.81,1395.79,1,26,1
-3.17,7.54,2.25,-0.21,-0.04,-2.60,1065.68,1199.23,0,27,1
-4.99,6.46,1.89,-0.06,-0.55,-2.53,937.80,1108.41,0,27,1
-5.77,4.48,1.19,0.01,-0.32,-2.43,807.15,884.82,0,27,1
-5.35,2.14,1.37,-0.08,0.12,-3.05,544.22,609.77,0,27,1
-10.88,-1.70,1.48,0.15,0.14,-3.21,467.69,550.52,0,27,1
-14.71,0.51,0.63,-0.18,-1.02,-0.25,393.10,455.75,0,27,1
-12.01,-0.42,1.19,-0.17,-0.33,0.31,338.20,380.94,0,27,1
-9.08,0.20,1.27,-0.14,-0.38,0.38,315.07,373.15,0,27,1
-10.25,0.22,1.38,-0.16,0.03,0.77,0.00,0.00,0,27,1
-10.87,0.75,1.72,-0.18,0.05,1.79,0.00,0.00,0,27,1
-10.11,2.29,1.83,-0.13,0.02,2.85,0.00,0.00,0,27,1
-7.74,4.13,1.21,-0.01,0.36,3.47,0.00,349.10,0,27,1
-3.85,6.24,0.52,0.01,0.83,3.07,453.35,625.78,0,27,1
0.14,7.73,0.59,-0.27,-0.15,2.69,1026.04,1427.53,1,27,1
13.88,8.17,-0.71,0.03,-0.18,1.09,1803.40,2106.15,1,27,1
2.12,8.77,0.54,-0.55,0.45,-0.56,1470.60,1703.60,1,27,1
6.03,8.37,2.06,-0.24,-0.14,0.26,1380.04,1530.79,1,27,1
4.63,8.53,0.78,-0.55,-0.02,-0.03,1310.25,1436.26,1,27,1
5.05,7.93,1.95,-0.36,-0.09,0.10,1256.61,1378.87,1,27,1
5.01,7.77,1.84,-0.29,0.20,-0.05,1212.69,1358.56,1,27,1
4.40,7.96,2.30,-0.15,0.27,-0.07,1214.15,1333.64,1,27,1
4.78,8.47,2.91,-0.13,0.22,0.00,1195.05,1336.98,0,28,1
4.09,8.16,3.34,-0.10,0.18,0.05,1175.86,1348.37,0,28,1
4.45,7.86,3.01,-0.09,0.09,0.03,1133.27,1307.78,0,28,1
4.56,8.00,2.90,-0.10,0.11,-0.01,1196.29,1348.94,0,28,1
