ax,ay,az,gx,gy,gz,mav,rms,label_kontraksi,repetisi,id_orang
-8.12,6.71,0.67,-0.09,-0.16,0.12,0.00,370.37,0,0,1
-8.64,9.05,1.58,-0.18,-0.22,0.49,0.00,329.77,0,0,1
-7.79,8.60,3.25,0.26,-1.09,0.84,0.00,343.19,0,0,1
-6.28,8.43,0.96,0.36,-0.79,0.73,345.22,431.48,0,0,1
-5.75,6.21,1.63,0.30,-0.23,0.35,300.75,382.77,0,0,1
-4.64,5.28,1.20,0.06,0.20,0.09,0.00,343.78,0,0,1
-4.59,5.99,1.94,-0.32,-0.04,-0.06,330.91,398.02,0,0,1
-4.57,4.62,3.28,-0.36,-0.21,-0.02,360.41,406.81,0,0,1
-6.09,3.93,3.20,-0.09,0.21,0.16,329.54,375.57,0,0,1
-4.84,3.60,3.40,0.11,-0.09,0.10,324.95,363.88,0,0,1
-5.35,7.40,2.40,0.62,-0.51,-0.41,301.71,345.09,0,0,1
-6.31,9.44,0.85,1.02,-0.19,-0.65,301.33,366.71,0,0,1
-5.82,8.27,-1.55,1.57,-0.65,-1.24,0.00,0.00,0,0,1
-8.52,8.64,-2.62,2.02,-0.63,-1.40,0.00,0.00,0,0,1
-7.90,9.63,-2.71,1.72,-0.76,-0.33,301.53,415.52,0,0,1
-5.78,9.20,-2.61,0.18,-1.02,-0.32,0.00,0.00,0,0,1
-7.43,6.66,-1.35,-0.24,0.07,-0.00,0.00,0.00,0,0,1
-6.93,6.30,-1.16,-0.32,0.02,0.21,0.00,0.00,0,0,1
-7.33,7.57,-1.37,-0.60,0.27,0.18,0.00,0.00,0,0,1
-6.26,10.25,-0.91,-1.33,-0.18,0.81,0.00,0.00,0,0,1
-6.65,10.10,0.09,-1.58,0.32,1.03,0.00,0.00,0,0,1
-8.54,9.20,0.16,-1.24,0.80,0.83,351.24,442.67,0,0,1
-7.83,7.99,-0.51,-0.58,0.76,0.69,363.19,458.42,0,0,1
-6.35,4.30,1.18,-0.43,0.00,0.28,350.97,445.39,0,0,1
-6.90,3.82,1.99,-0.18,0.64,0.32,374.25,463.47,0,0,1
-4.67,4.86,2.00,-0.43,0.46,0.36,663.55,914.14,0,0,1
-3.55,5.18,3.82,-0.22,0.45,0.13,541.49,658.43,0,0,1
-3.84,5.82,3.77,-0.28,0.03,0.05,549.45,780.92,0,0,1
-4.38,4.95,4.20,-0.61,-0.35,0.14,661.02,832.84,0,0,1
-4.11,2.32,5.16,-0.43,0.04,0.52,725.65,817.52,0,0,1
-3.70,4.15,3.95,-0.17,-0.08,0.71,767.71,922.61,0,0,1
-2.62,5.10,3.76,0.12,-0.09,0.14,697.72,828.71,0,0,1
-3.08,7.99,1.96,0.70,-0.16,-0.67,544.38,607.87,0,0,1
-4.68,7.88,1.83,1.13,-0.11,-1.06,413.74,463.65,0,0,1
-6.35,8.45,0.18,1.53,-0.25,-1.67,334.10,371.31,0,0,1
-7.32,8.89,-1.52,1.98,-0.23,-1.53,0.00,0.00,0,0,1
-8.75,9.29,-2.15,1.49,0.03,-0.44,0.00,0.00,0,0,1
-7.08,8.62,-1.66,0.57,0.06,0.14,0.00,0.00,0,0,1
-7.32,6.86,-1.24,-0.05,0.11,0.04,0.00,0.00,0,0,1
-7.53,6.19,-1.80,-0.33,-0.15,0.06,0.00,0.00,0,0,1
-7.47,6.53,-1.50,-0.38,-0.11,0.12,0.00,0.00,0,0,1
-6.81,7.95,-1.79,-0.58,-0.12,0.31,0.00,0.00,0,0,1
-5.87,9.54,-1.29,-1.00,-0.18,0.58,0.00,0.00,0,0,1
-6.29,9.53,-1.24,-1.34,-0.10,0.58,0.00,0.00,0,0,1
-7.58,9.49,-1.03,-1.43,0.15,0.95,0.00,331.39,0,0,1
-7.92,8.89,0.38,-1.23,0.25,0.92,309.24,388.09,0,0,1
-5.22,7.04,1.67,-0.67,0.04,0.61,455.87,639.25,0,0,1
-5.33,4.89,1.73,-0.40,0.10,0.50,466.67,563.38,0,0,1
-4.22,4.94,2.85,-0.15,0.36,0.28,457.64,574.45,0,0,1
-3.90,5.15,3.46,-0.26,-0.09,-0.07,599.60,755.03,0,0,1
-3.81,4.87,3.81,-0.14,0.10,-0.16,475.51,584.76,0,0,1
-4.57,6.01,3.99,-0.15,0.06,-0.01,495.78,574.09,0,0,1
-4.04,5.33,4.37,-0.43,-0.23,0.09,677.41,906.86,0,0,1
-4.58,1.96,4.98,-0.12,-0.00,0.25,485.24,534.65,0,0,1
-3.83,4.45,3.93,-0.24,0.11,0.34,608.76,690.71,0,0,1
-3.72,6.00,3.31,0.12,-0.14,-0.22,482.92,559.40,0,0,1
-5.39,8.49,2.14,0.61,-0.01,-0.92,370.51,428.68,0,0,1
-5.20,8.36,1.67,0.88,-0.13,-1.19,341.16,380.51,0,0,1
-5.66,8.29,-0.21,1.44,-0.02,-1.54,0.00,0.00,0,0,1
-8.37,8.51,-0.56,1.70,0.31,-1.05,0.00,0.00,0,0,1
-7.44,7.51,-1.65,1.68,0.31,-0.15,0.00,0.00,0,0,1
-7.58,8.17,-2.09,0.51,0.53,-0.46,0.00,0.00,0,0,1
-8.50,7.07,-1.24,-0.16,-0.18,-0.06,0.00,0.00,0,0,1
-7.20,5.89,-1.88,-0.31,-0.30,0.33,0.00,0.00,0,0,1
-6.75,6.17,-1.96,-0.41,0.18,0.17,0.00,0.00,0,0,1
-6.99,7.44,-1.55,-0.56,0.26,0.25,0.00,0.00,0,0,1
-6.86,8.94,-1.40,-0.94,0.19,0.72,0.00,0.00,0,0,1
-6.53,9.47,-0.58,-1.19,0.17,0.84,0.00,0.00,0,0,1
-7.06,9.05,-1.52,-1.01,0.08,0.95,0.00,0.00,0,0,1
-7.15,8.25,-1.71,-0.92,0.72,0.67,307.82,414.64,0,0,1
-6.58,6.44,-0.04,-1.14,0.24,0.38,0.00,382.20,0,0,1
-6.81,6.06,2.16,-0.82,0.22,0.31,383.27,477.12,0,0,1
-4.55,5.54,3.27,-0.34,0.19,0.23,491.08,633.04,0,0,1
-4.91,4.54,4.09,-0.23,0.43,-0.11,601.30,838.47,0,0,1
-4.40,6.32,3.28,-0.08,0.36,-0.07,550.76,697.60,0,0,1
-3.85,5.90,2.83,-0.02,0.58,-0.22,501.86,677.40,0,0,1
-4.97,5.55,4.06,-0.31,0.01,-0.10,446.64,615.12,0,0,1
-3.75,2.77,3.86,0.02,0.59,0.28,440.17,486.93,0,0,1
-4.84,4.13,3.76,0.00,-0.09,0.49,469.26,527.97,0,0,1
-4.29,5.41,2.32,0.29,-0.07,0.23,452.41,511.28,0,0,1
-3.99,7.37,1.22,0.54,-0.29,-0.54,328.95,376.67,0,0,1
-7.39,10.40,0.57,0.60,-0.60,-1.03,0.00,304.08,0,0,1
-6.92,9.32,-0.50,0.90,-0.19,-1.00,0.00,0.00,0,0,1
-5.11,9.22,-1.19,1.63,-0.17,-0.92,0.00,0.00,0,0,1
-7.18,7.87,-1.75,1.42,0.20,-0.36,0.00,0.00,0,0,1
-7.87,9.15,-1.67,0.85,0.20,-0.27,0.00,0.00,0,0,1
-8.04,8.19,-1.40,-0.12,0.00,-0.20,0.00,0.00,0,0,1
-7.67,6.54,-1.38,-0.50,-0.01,0.14,0.00,0.00,0,0,1
-7.33,5.69,-1.13,-0.35,-0.08,0.19,0.00,0.00,0,0,1
-7.24,6.11,-1.11,-0.24,0.02,-0.01,0.00,0.00,0,0,1
-7.23,8.16,-1.60,-0.39,0.20,0.14,0.00,0.00,0,0,1
-7.35,9.72,-1.90,-0.92,0.20,0.70,0.00,0.00,0,0,1
-5.79,9.91,-0.62,-1.45,-0.48,0.92,0.00,0.00,0,0,1
-6.35,8.98,0.46,-1.46,0.54,1.27,0.00,0.00,0,0,1
-5.73,7.09,0.75,-1.13,0.87,0.79,0.00,0.00,0,0,1
-5.28,8.11,-0.18,-0.55,0.40,0.32,374.38,474.84,0,0,1
-5.28,5.22,1.13,-0.26,0.52,-0.18,348.95,457.90,0,0,1
-6.23,3.70,3.11,-0.13,0.43,-0.31,586.84,804.91,0,0,1
-4.06,3.64,3.75,-0.19,-0.07,-0.36,826.95,1035.91,0,0,1
-4.87,5.47,3.66,-0.20,-0.01,-0.29,657.49,806.79,0,0,1
-5.41,3.47,4.63,-0.18,-0.06,-0.08,495.44,557.79,0,0,1
-4.53,3.31,3.27,-0.02,-0.15,0.14,481.66,532.05,0,0,1
-4.76,4.31,3.00,-0.01,-0.04,0.19,416.20,474.38,0,0,1
-5.16,6.88,2.26,0.66,0.23,-0.23,351.38,398.22,0,0,1
-7.21,9.27,0.16,1.19,-0.03,-0.55,300.32,335.11,0,0,1
-7.51,7.16,-0.00,1.25,-0.78,-0.94,0.00,318.36,0,0,1
-8.01,7.28,-2.46,1.68,-0.86,-1.23,0.00,0.00,0,0,1
-8.75,8.59,-3.21,1.94,-0.01,-0.78,0.00,0.00,0,0,1
-8.43,9.60,-2.74,1.13,0.08,0.08,0.00,0.00,0,0,1
-7.35,7.87,-1.16,-0.12,-0.00,0.31,0.00,0.00,0,0,1
-7.08,6.39,-1.43,-0.42,-0.22,0.21,0.00,0.00,0,0,1
-6.62,6.09,-1.81,-0.43,-0.19,0.20,0.00,0.00,0,0,1
-7.27,6.81,-0.94,-0.59,0.27,0.22,0.00,0.00,0,0,1
-6.89,8.89,-0.74,-0.70,0.00,0.60,0.00,0.00,0,0,1
-6.29,10.38,-1.04,-0.93,-0.26,0.88,0.00,0.00,0,0,1
-6.60,10.31,-0.18,-1.11,-0.21,0.99,0.00,0.00,0,0,1
-7.12,9.06,-0.52,-0.94,0.37,0.75,319.75,394.35,0,0,1
-4.78,5.99,0.90,-0.81,-0.00,0.32,339.05,425.32,0,0,1
-3.02,4.77,0.93,-0.46,-0.26,0.04,428.64,580.45,0,0,1
-4.96,5.39,2.95,-0.30,0.43,-0.37,307.23,413.40,0,0,1
-6.23,3.71,4.02,-0.31,0.15,-0.41,459.34,584.40,0,0,1
-6.76,3.94,4.65,-0.23,-0.32,-0.33,389.37,486.75,0,0,1
-6.19,5.29,3.95,-0.08,-0.00,-0.20,451.26,510.60,0,0,1
-6.63,4.65,3.70,-0.05,-0.03,0.12,333.84,369.47,0,0,1
-6.64,2.82,3.80,-0.03,-0.40,0.60,322.41,367.30,0,0,1
-4.65,4.93,1.66,-0.05,-0.18,0.56,0.00,313.20,0,0,1
-5.13,8.11,0.97,0.30,0.48,0.04,0.00,0.00,0,0,1
-6.96,8.84,0.89,0.23,-0.18,-0.68,0.00,0.00,0,0,1
-5.94,8.09,-0.07,0.60,-0.05,-1.13,0.00,0.00,0,0,1
-7.93,8.36,0.13,1.50,0.26,-1.06,0.00,0.00,0,0,1
-9.33,8.56,-1.66,1.86,0.97,-0.28,0.00,0.00,0,0,1
-6.90,9.23,-2.10,0.90,0.27,0.02,0.00,0.00,0,0,1
-7.74,7.29,-1.94,-0.29,0.09,-0.06,0.00,0.00,0,0,1
-6.98,5.85,-1.97,-0.55,0.24,0.00,0.00,0.00,0,0,1
-7.11,5.44,-1.93,-0.48,0.47,0.04,0.00,0.00,0,0,1
-7.17,5.64,-1.43,-0.44,0.53,0.02,0.00,0.00,0,0,1
-7.80,6.49,-0.87,-0.38,0.14,0.15,0.00,0.00,0,0,1
-7.17,8.58,-1.15,-0.70,-0.24,0.47,0.00,0.00,0,0,1
-6.75,9.60,-0.61,-1.23,-0.11,0.63,0.00,0.00,0,0,1
-6.16,8.62,-0.88,-1.49,0.49,0.64,0.00,0.00,0,0,1
-7.17,8.24,0.05,-1.23,0.48,0.66,0.00,338.85,0,0,1
-8.01,8.17,0.50,-1.06,0.48,0.64,318.96,400.78,0,0,1
-6.37,5.78,0.84,-0.23,0.49,0.54,0.00,365.81,0,0,1
-5.30,2.88,2.06,-0.12,0.19,-0.14,352.11,443.94,0,0,1
-5.68,2.96,3.89,-0.23,-0.49,-0.39,643.19,826.72,0,0,1
-4.55,4.68,4.15,-0.10,-0.02,-0.26,981.67,1298.58,0,0,1
-5.06,3.95,4.07,-0.03,0.05,-0.05,737.48,845.40,0,0,1
-5.73,3.21,4.39,0.06,0.12,0.23,600.05,740.62,0,0,1
-5.89,3.99,3.33,-0.13,-0.14,0.45,454.75,527.95,0,0,1
-5.06,5.26,2.27,0.12,0.06,0.32,381.79,445.64,0,0,1
-5.48,8.28,1.51,0.55,-0.03,-0.37,306.17,354.09,0,0,1
-7.15,7.41,1.77,0.54,-0.91,-0.85,0.00,0.00,0,0,1
-6.41,6.70,-0.76,1.40,-0.12,-1.02,0.00,0.00,0,0,1
-7.25,7.72,-2.48,1.56,-0.10,-1.29,0.00,0.00,0,0,1
-8.74,8.37,-3.19,1.89,1.07,-0.60,0.00,0.00,0,0,1
-9.09,8.85,-2.52,1.01,0.51,-0.11,0.00,0.00,0,0,1
-8.36,6.77,-2.71,-0.19,-0.53,0.11,0.00,0.00,0,0,1
-7.96,5.19,-2.04,-0.42,-0.17,0.06,0.00,0.00,0,0,1
-8.22,4.68,-1.87,-0.36,0.07,0.09,0.00,0.00,0,0,1
-7.97,6.25,-2.26,-0.26,-0.01,0.14,0.00,0.00,0,0,1
-7.30,8.59,-2.82,-0.66,-0.07,0.56,0.00,0.00,0,0,1
-7.54,8.95,-2.34,-1.39,-0.11,0.82,0.00,0.00,0,0,1
-8.40,8.75,-1.22,-1.64,-0.09,0.92,0.00,0.00,0,0,1
-7.15,8.28,-0.55,-1.42,0.24,0.99,0.00,0.00,0,0,1
-5.99,7.34,1.29,-1.01,-0.41,0.70,341.37,455.35,0,0,1
-5.20,6.06,1.35,-0.59,0.38,0.66,333.93,429.31,0,0,1
-3.85,5.48,3.32,-0.05,-0.10,0.42,326.70,406.56,0,0,1
-3.97,6.06,2.55,0.26,-0.23,-0.04,756.77,984.78,0,0,1
-3.58,5.80,2.29,0.21,-0.04,-0.21,760.21,999.49,0,0,1
-3.22,5.91,2.39,0.07,-0.10,-0.01,509.64,609.39,0,0,1
-3.99,4.86,3.13,-0.14,0.01,-0.01,386.59,456.99,0,0,1
-3.09,3.84,3.11,-0.25,-0.02,0.18,404.40,457.42,0,0,1
-3.58,5.44,2.20,-0.26,0.10,0.09,465.31,532.40,0,0,1
-4.33,5.65,2.07,0.03,0.16,-0.41,373.29,424.78,0,0,1
-6.57,9.71,0.91,0.48,0.72,-1.15,317.69,362.86,0,0,1
-8.17,8.98,-0.12,1.02,0.58,-1.29,0.00,0.00,0,0,1
-8.94,6.88,-2.31,1.64,-0.13,-1.22,0.00,0.00,0,0,1
-9.51,8.43,-3.48,1.81,0.25,-0.58,0.00,0.00,0,0,1
-7.99,8.21,-3.94,1.24,-0.29,0.33,0.00,0.00,0,0,1
-7.16,7.20,-3.03,0.28,0.01,0.26,0.00,0.00,0,0,1
-8.08,6.07,-2.96,-0.31,0.22,-0.08,0.00,0.00,0,0,1
-7.96,4.75,-2.32,-0.45,0.17,0.02,0.00,0.00,0,0,1
-7.43,4.48,-2.35,-0.27,0.18,0.05,0.00,0.00,0,0,1
-8.06,5.06,-2.28,-0.11,0.27,-0.05,0.00,0.00,0,0,1
-7.76,6.91,-2.82,-0.26,-0.01,0.10,0.00,0.00,0,0,1
-7.13,9.15,-2.81,-0.87,-0.12,0.43,0.00,0.00,0,0,1
-8.81,9.06,-1.58,-1.32,-0.15,0.76,0.00,0.00,0,0,1
-8.70,9.98,-1.90,-1.40,0.28,1.00,0.00,0.00,0,0,1
-8.33,7.31,-0.38,-1.01,-0.41,0.70,0.00,0.00,0,0,1
-7.40,5.88,-0.31,-0.43,-0.14,0.41,304.61,378.37,0,0,1
-6.33,4.93,1.99,-0.10,-0.50,0.09,323.06,431.61,0,0,1
-5.18,3.93,2.58,-0.16,-0.25,-0.42,0.00,323.22,0,0,1
-4.55,4.16,2.94,0.20,-0.07,-0.52,433.36,683.62,0,0,1
-4.90,4.69,2.94,-0.13,-0.54,-0.16,319.47,400.81,0,0,1
-5.94,5.26,4.10,-0.26,0.21,0.19,0.00,332.93,0,0,1
-5.29,4.14,3.90,-0.13,0.51,0.56,315.09,350.30,0,0,1
-5.56,4.37,3.00,-0.05,0.00,0.58,0.00,0.00,0,0,1
-4.87,5.84,1.19,0.10,0.33,-0.10,0.00,0.00,0,0,1
-6.07,8.72,0.81,0.38,0.43,-0.82,0.00,0.00,0,0,1
-6.08,8.96,0.07,0.82,0.27,-1.13,0.00,0.00,0,0,1
-6.81,7.41,-1.01,1.23,-0.34,-1.24,0.00,0.00,0,0,1
-7.33,7.55,-2.96,1.53,0.34,-0.81,0.00,0.00,0,0,1
-9.26,8.22,-1.70,1.30,-0.14,-0.20,0.00,0.00,0,0,1
-8.76,7.31,-1.98,0.17,-0.46,0.27,0.00,0.00,0,0,1
-8.50,5.61,-2.07,-0.51,-0.21,0.17,0.00,0.00,0,0,1
-8.37,4.77,-1.88,-0.61,0.05,0.13,0.00,0.00,0,0,1
-7.97,4.48,-1.21,-0.37,0.19,0.13,0.00,0.00,0,0,1
-7.99,5.07,-0.91,-0.23,0.07,0.07,0.00,0.00,0,0,1
-7.97,6.60,-1.29,-0.27,0.13,0.06,0.00,0.00,0,0,1
-8.39,9.01,-2.02,-0.91,-0.03,0.50,0.00,0.00,0,0,1
-8.06,9.49,-0.76,-1.78,-0.17,0.88,0.00,0.00,0,0,1
-8.36,9.12,-0.24,-1.90,0.22,1.18,0.00,0.00,0,0,1
-8.36,8.20,-0.68,-1.68,0.74,1.12,0.00,0.00,0,0,1
-7.83,5.86,4.57,-0.49,-1.74,1.74,333.22,480.21,0,0,1
-5.52,5.20,1.51,0.14,-0.47,0.94,446.23,574.01,0,0,1
-0.76,2.72,1.41,0.62,0.07,0.03,1567.69,1984.92,1,0,1
-3.97,3.72,4.14,-0.24,0.47,0.31,1056.21,1348.75,0,1,1
-3.01,5.03,2.96,-0.16,0.38,0.53,1419.21,1676.94,1,1,1
-2.93,6.38,3.12,0.14,-0.11,-0.25,894.83,1015.85,0,2,1
-4.32,9.76,2.11,0.59,-0.05,-1.28,880.40,938.81,0,2,1
-8.96,8.81,1.75,0.85,-0.28,-1.32,529.36,588.59,0,2,1
-7.71,7.22,-0.65,1.04,-0.37,-1.69,404.99,450.07,0,2,1
-10.45,7.40,0.65,1.64,0.84,-1.65,0.00,332.85,0,2,1
-11.58,7.88,-2.28,2.13,0.62,-0.41,0.00,0.00,0,2,1
-9.00,8.01,-3.21,0.83,-0.18,0.16,0.00,0.00,0,2,1
-6.89,6.13,-1.67,0.23,-0.70,0.29,0.00,0.00,0,2,1
-6.90,5.59,-2.53,-0.02,-0.13,0.19,0.00,0.00,0,2,1
-8.45,5.08,-2.22,-0.25,-0.09,0.10,0.00,0.00,0,2,1
-8.30,5.16,-1.61,-0.26,0.14,0.12,0.00,0.00,0,2,1
-7.16,8.42,-2.83,-0.65,0.37,0.22,0.00,0.00,0,2,1
-7.36,8.96,-1.82,-1.37,-0.28,0.69,0.00,0.00,0,2,1
-8.03,8.60,-0.93,-1.60,0.42,0.92,0.00,0.00,0,2,1
-8.26,7.89,-0.56,-1.42,0.68,0.90,0.00,0.00,0,2,1
-8.23,7.56,0.86,-0.93,-0.28,0.94,310.59,399.38,0,2,1
-4.40,6.28,1.23,-0.33,-0.56,0.38,302.33,363.76,0,2,1
-4.46,5.84,1.35,-0.14,-1.33,0.31,445.98,578.21,0,2,1
-3.89,5.03,2.19,-0.04,-0.10,-0.17,501.66,702.29,0,2,1
-3.54,2.68,4.21,-0.15,-0.10,-0.29,516.02,689.02,0,2,1
-2.73,5.70,5.35,-0.15,-0.23,0.04,477.85,649.84,0,2,1
-5.07,4.10,5.08,-0.37,-0.07,0.09,428.80,506.99,0,2,1
-5.13,2.34,4.98,-0.22,0.57,0.78,574.78,670.66,0,2,1
-4.06,4.48,3.10,-0.31,0.41,1.08,497.50,551.17,0,2,1
-3.46,5.97,3.04,0.06,0.42,0.37,522.39,596.75,0,2,1
-3.35,9.93,2.15,0.61,0.18,-0.61,363.40,427.40,0,2,1
-6.65,9.59,1.72,0.95,-0.12,-1.31,317.76,354.58,0,2,1
-8.79,9.05,1.35,1.43,-0.73,-0.83,0.00,302.65,0,2,1
-4.74,9.19,-1.40,1.32,-0.69,-0.70,0.00,301.35,0,2,1
-5.38,8.45,-1.52,1.28,0.01,-0.76,0.00,0.00,0,2,1
-7.62,8.74,-1.27,0.94,-0.15,-0.57,0.00,0.00,0,2,1
-7.79,8.33,-0.99,-0.04,-0.14,-0.27,0.00,0.00,0,2,1
-7.92,6.91,-1.32,-0.32,0.13,0.06,0.00,0.00,0,2,1
-6.92,6.04,-1.27,-0.30,-0.09,0.22,0.00,0.00,0,2,1
-6.81,6.08,-0.93,-0.27,-0.19,0.08,0.00,0.00,0,2,1
-7.40,6.34,-0.34,-0.27,-0.13,0.02,0.00,0.00,0,2,1
-7.15,8.04,-0.37,-0.29,0.11,0.03,0.00,0.00,0,2,1
-6.41,9.40,-1.22,-0.59,0.18,0.37,0.00,0.00,0,2,1
-8.54,9.51,-1.58,-1.32,0.64,0.54,0.00,0.00,0,2,1
-9.26,8.71,0.41,-1.25,-0.19,0.95,0.00,0.00,0,2,1
-7.68,8.63,-0.16,-0.82,0.03,1.13,0.00,0.00,0,2,1
-4.91,7.27,0.08,-0.90,-0.11,0.56,377.81,615.37,0,2,1
-4.89,4.98,2.02,-0.69,-0.27,-0.00,380.99,489.59,0,2,1
-5.02,4.49,3.61,-0.40,0.12,-0.08,336.06,416.74,0,2,1
-5.88,5.40,5.36,-0.10,-0.06,0.18,849.68,1102.75,0,2,1
-3.99,2.24,4.20,-0.09,-0.81,0.26,738.37,938.46,0,2,1
-1.67,5.65,3.54,-0.32,-0.10,0.36,535.68,649.04,0,2,1
-0.99,4.08,3.99,-0.03,0.73,0.51,1038.33,1303.98,0,2,1
-3.51,3.32,3.97,-0.16,0.50,0.41,666.58,830.98,0,2,1
-4.46,6.82,2.43,0.47,-0.02,-0.48,534.69,613.52,0,2,1
-7.59,8.29,0.85,0.91,0.16,-1.49,443.75,493.67,0,2,1
-7.59,7.45,-1.00,1.02,-0.36,-1.27,333.63,374.07,0,2,1
-9.83,7.52,-0.23,1.54,-0.50,-1.34,0.00,0.00,0,2,1
-9.28,7.62,-2.60,1.71,-0.07,-0.73,0.00,0.00,0,2,1
-9.11,8.23,-1.75,1.41,0.61,-0.28,0.00,0.00,0,2,1
-7.96,7.84,-1.94,0.41,-0.19,0.09,0.00,0.00,0,2,1
-7.45,5.80,-2.14,-0.30,-0.05,0.15,0.00,0.00,0,2,1
-7.72,4.99,-2.07,-0.42,0.28,0.15,0.00,0.00,0,2,1
-8.35,5.12,-1.52,-0.38,0.05,0.12,0.00,0.00,0,2,1
-9.07,5.73,-1.42,-0.41,0.22,0.10,0.00,0.00,0,2,1
-7.23,7.59,-1.56,-0.51,0.30,0.45,0.00,0.00,0,2,1
-8.52,9.08,-0.97,-0.89,-0.27,0.87,0.00,0.00,0,2,1
-7.47,9.04,-1.20,-1.32,-0.28,1.00,0.00,0.00,0,2,1
-6.99,8.60,-0.99,-1.32,0.21,0.95,0.00,333.08,0,2,1
-7.51,7.14,1.35,-1.25,0.19,0.76,366.70,481.69,0,2,1
-4.78,7.21,1.76,-0.80,0.21,0.61,484.13,615.59,0,2,1
-6.28,4.36,3.70,-0.52,0.19,0.34,460.48,550.31,0,2,1
-4.26,5.60,3.41,-0.13,0.55,0.20,614.47,788.07,0,2,1
-3.31,4.22,4.75,-0.14,-0.04,-0.09,1818.23,2135.12,1,2,1
-5.13,2.93,4.24,-0.06,0.03,0.36,749.12,868.20,0,3,1
-4.27,4.63,2.64,0.20,0.38,0.50,606.32,715.32,0,3,1
-4.56,6.83,2.14,0.24,0.19,-0.18,524.50,613.59,0,3,1
-6.25,7.58,1.72,0.68,-0.16,-0.99,441.82,483.54,0,3,1
-6.29,7.94,0.01,1.00,-0.29,-1.05,330.35,367.13,0,3,1
-7.03,8.59,-0.81,1.09,-0.37,-0.86,0.00,0.00,0,3,1
-7.81,7.47,-0.40,1.31,0.45,-0.69,0.00,0.00,0,3,1
-7.95,7.30,-1.64,1.41,0.54,-0.24,0.00,0.00,0,3,1
-7.45,7.77,-1.98,1.00,0.07,-0.08,0.00,0.00,0,3,1
-7.92,7.53,-1.98,0.14,-0.25,0.03,0.00,0.00,0,3,1
-7.23,5.97,-2.14,-0.36,-0.22,0.09,0.00,0.00,0,3,1
-7.34,5.54,-1.62,-0.34,-0.16,0.10,0.00,0.00,0,3,1
-7.40,5.71,-1.05,-0.17,0.08,0.05,0.00,0.00,0,3,1
-7.40,7.10,-1.19,-0.24,0.13,0.08,0.00,0.00,0,3,1
-6.79,10.00,-1.70,-0.53,-0.21,0.66,0.00,0.00,0,3,1
-6.86,10.68,-2.46,-1.48,0.06,0.77,0.00,0.00,0,3,1
-8.51,9.19,-3.13,-1.79,0.07,1.09,0.00,0.00,0,3,1
-7.08,6.40,-0.44,-1.75,0.06,1.05,0.00,335.10,0,3,1
-6.07,4.92,2.33,-1.22,0.08,0.80,440.96,580.34,0,3,1
-6.39,4.84,2.96,-0.61,-0.03,0.59,662.06,925.31,0,3,1
-3.35,5.54,3.93,-0.07,0.94,0.12,472.00,600.31,0,3,1
-5.66,5.23,4.70,-0.22,0.07,-0.19,1545.59,1920.13,1,3,1
-4.54,2.87,5.32,-0.03,-0.32,0.36,1270.94,1532.19,1,3,1
-4.78,4.90,3.75,0.15,0.28,0.39,728.21,865.51,0,4,1
-4.58,6.64,2.47,0.60,0.07,-0.20,639.96,743.16,0,4,1
-5.86,9.63,0.60,1.00,-0.10,-0.84,552.17,604.48,0,4,1
-7.14,11.32,-0.92,1.12,-0.76,-0.86,382.89,427.29,0,4,1
-7.48,8.73,-0.66,0.94,-0.63,-0.86,0.00,329.27,0,4,1
-6.39,8.01,-0.77,0.90,-0.84,-0.63,0.00,0.00,0,4,1
-7.80,8.70,-1.08,1.19,-0.11,-0.62,0.00,0.00,0,4,1
-8.18,8.87,-1.53,0.72,-0.20,-0.12,0.00,0.00,0,4,1
-7.10,7.41,-1.48,0.01,0.29,0.03,0.00,0.00,0,4,1
-6.74,6.58,-1.02,-0.21,0.07,0.06,0.00,0.00,0,4,1
-6.82,6.29,-1.29,-0.17,-0.15,0.09,0.00,0.00,0,4,1
-7.17,6.96,-1.12,-0.14,0.10,0.01,0.00,0.00,0,4,1
-7.69,8.89,-1.13,-0.47,0.12,0.31,0.00,0.00,0,4,1
-6.75,10.01,-1.37,-1.07,0.07,0.58,0.00,0.00,0,4,1
-6.58,10.27,-1.74,-1.40,0.23,0.66,0.00,0.00,0,4,1
-8.11,8.11,-0.47,-1.26,-0.03,0.95,0.00,0.00,0,4,1
-7.64,7.18,0.86,-0.90,-0.85,0.94,306.41,446.79,0,4,1
-6.88,6.70,2.79,-0.42,-0.63,0.51,321.19,437.83,0,4,1
-4.22,4.90,2.75,0.01,0.04,-0.10,363.14,501.97,0,4,1
-4.38,4.68,2.41,0.38,0.74,-0.24,453.61,624.72,0,4,1
-4.66,4.57,2.82,-0.15,-0.10,-0.35,478.31,618.38,0,4,1
-3.56,4.43,3.16,-0.43,-0.12,0.01,437.94,593.43,0,4,1
-4.06,2.76,4.16,-0.47,-0.26,0.49,494.12,562.05,0,4,1
-4.30,6.05,3.44,-0.25,0.01,0.59,510.28,588.07,0,4,1
-4.34,5.39,3.03,0.08,0.64,0.33,347.44,409.71,0,4,1
-3.78,9.30,1.05,0.25,0.25,-0.53,330.85,375.03,0,4,1
-5.66,8.65,2.28,0.17,-0.71,-0.87,0.00,300.09,0,4,1
-6.50,7.92,1.84,0.80,0.12,-0.97,0.00,0.00,0,4,1
-6.39,8.73,0.02,1.00,-0.07,-1.13,0.00,0.00,0,4,1
-6.26,7.92,-0.71,1.21,0.44,-0.64,0.00,0.00,0,4,1
-6.69,7.63,-1.12,0.98,0.12,-0.33,0.00,0.00,0,4,1
-7.64,7.79,-1.46,0.21,-0.10,-0.23,0.00,0.00,0,4,1
-7.68,6.49,-0.45,-0.25,0.15,0.04,0.00,0.00,0,4,1
-7.03,5.58,-0.24,-0.28,-0.03,0.12,0.00,0.00,0,4,1
-7.05,5.61,0.08,-0.20,-0.13,0.07,0.00,0.00,0,4,1
-7.28,7.41,-0.33,-0.15,0.13,0.03,0.00,0.00,0,4,1
-7.85,9.44,-0.90,-0.59,0.13,0.46,0.00,0.00,0,4,1
-7.43,9.65,-0.85,-1.13,-0.01,0.89,0.00,0.00,0,4,1
-7.53,8.31,0.58,-1.20,0.80,1.00,0.00,0.00,0,4,1
-6.33,7.24,0.66,-0.28,0.54,1.17,0.00,0.00,0,4,1
-5.68,6.86,-0.66,-0.33,0.81,0.59,0.00,357.07,0,4,1
-4.75,6.52,0.61,-0.35,0.14,0.06,0.00,402.40,0,4,1
-4.50,5.08,2.67,-0.26,0.04,-0.52,370.17,493.04,0,4,1
-5.38,3.94,3.78,-0.02,-0.02,-0.52,494.16,650.98,0,4,1
-4.42,4.19,3.16,-0.12,-0.27,0.08,349.16,454.25,0,4,1
-5.06,3.45,3.50,-0.43,-0.01,0.29,335.67,371.25,0,4,1
-4.17,3.31,3.51,-0.51,-0.11,0.70,383.71,441.29,0,4,1
-4.74,6.62,2.95,-0.04,0.45,0.28,356.43,395.35,0,4,1
-5.45,8.34,2.23,0.34,0.39,-0.45,0.00,0.00,0,4,1
-7.00,8.55,1.78,0.48,-0.11,-0.77,0.00,0.00,0,4,1
-6.54,7.78,0.59,1.27,-1.11,-0.49,0.00,0.00,0,4,1
-6.84,7.24,-0.36,1.27,-1.00,-0.53,0.00,0.00,0,4,1
-6.16,9.00,-1.37,1.39,0.13,-0.66,0.00,0.00,0,4,1
-6.04,9.57,-2.00,1.35,-0.13,-0.26,0.00,0.00,0,4,1
-8.17,8.25,-2.52,0.24,-0.04,0.01,0.00,0.00,0,4,1
-6.98,6.71,-1.70,-0.41,-0.08,0.03,0.00,0.00,0,4,1
-6.51,6.07,-1.83,-0.31,0.21,0.05,0.00,0.00,0,4,1
-6.89,5.99,-1.20,-0.21,0.08,0.03,0.00,0.00,0,4,1
-7.39,6.64,-1.27,-0.11,0.01,0.04,0.00,0.00,0,4,1
-7.13,8.24,-2.13,-0.31,-0.06,0.23,0.00,0.00,0,4,1
-6.42,9.44,-1.75,-1.00,-0.09,0.55,0.00,0.00,0,4,1
-7.09,9.94,-0.93,-1.42,-0.02,0.65,0.00,0.00,0,4,1
-6.69,9.86,-1.01,-1.40,0.74,0.76,0.00,0.00,0,4,1
-7.45,7.47,0.17,-1.39,-0.72,0.65,0.00,325.86,0,4,1
-7.35,6.68,1.43,-0.80,-0.33,0.53,0.00,348.65,0,4,1
-6.14,3.37,3.72,-0.31,0.13,-0.08,325.46,445.55,0,4,1
-4.36,4.01,4.02,0.03,-0.21,0.13,565.31,765.22,0,4,1
-2.77,4.02,3.60,-0.20,-0.62,0.12,1861.14,2194.11,1,4,1
-3.53,3.70,3.83,-0.21,0.58,0.68,1187.00,1418.15,1,4,1
-3.89,6.78,3.48,0.23,0.15,-0.07,842.32,914.44,0,5,1
-5.75,9.85,2.57,0.86,0.57,-0.84,602.85,665.84,0,5,1
-5.95,8.59,2.87,1.01,-0.23,-1.06,440.57,489.25,0,5,1
-5.31,7.92,-0.72,1.24,-0.14,-1.21,0.00,336.32,0,5,1
-7.24,7.80,-0.45,1.60,0.21,-1.15,0.00,0.00,0,5,1
-8.53,8.55,-2.35,1.61,0.23,-0.45,0.00,0.00,0,5,1
-8.30,8.43,-2.40,0.60,0.05,0.09,0.00,0.00,0,5,1
-7.69,6.75,-1.91,-0.18,0.05,0.11,0.00,0.00,0,5,1
-7.43,5.61,-1.58,-0.33,0.24,0.11,0.00,0.00,0,5,1
-7.29,5.43,-1.82,-0.26,0.11,0.01,0.00,0.00,0,5,1
-7.43,5.93,-1.44,-0.16,0.24,-0.06,0.00,0.00,0,5,1
-7.35,8.32,-1.99,-0.35,-0.05,0.26,0.00,0.00,0,5,1
-6.48,9.48,-1.66,-1.06,0.09,0.64,0.00,0.00,0,5,1
-7.18,10.30,-1.08,-1.43,0.10,0.75,0.00,0.00,0,5,1
-8.82,10.09,-2.36,-1.56,0.11,0.96,0.00,0.00,0,5,1
-8.88,7.50,1.07,-1.23,-0.83,0.59,0.00,354.48,0,5,1
-6.11,4.99,0.72,-0.61,-0.76,0.32,390.81,516.71,0,5,1
-5.03,4.52,2.92,-0.40,-0.12,0.27,311.67,433.87,0,5,1
-4.12,4.35,4.56,0.02,0.39,0.33,660.49,892.52,0,5,1
-1.95,5.17,3.06,-0.12,-0.01,-0.15,820.18,1121.45,0,5,1
-2.38,3.89,4.43,-0.24,-0.14,-0.28,640.98,804.08,0,5,1
-3.64,3.26,4.37,-0.28,0.19,0.30,1727.81,2028.75,1,5,1
-4.34,8.44,3.02,0.53,0.47,-0.16,1005.24,1046.57,0,6,1
-4.64,9.87,1.69,0.91,0.29,-0.56,650.73,693.06,0,6,1
-4.51,8.38,1.31,0.64,-0.10,-0.53,413.30,469.67,0,6,1
-7.24,8.79,1.83,1.06,-0.33,-0.47,0.00,344.92,0,6,1
-5.49,8.12,-0.27,1.43,-0.40,-0.47,0.00,315.09,0,6,1
-7.95,8.94,-1.42,1.53,0.37,-0.58,0.00,316.94,0,6,1
-7.80,9.95,-1.05,0.55,-0.41,-0.15,0.00,0.00,0,6,1
-6.12,7.95,-1.61,-0.17,-0.31,0.13,0.00,0.00,0,6,1
-6.08,7.00,-1.35,-0.31,-0.02,0.01,0.00,0.00,0,6,1
-6.83,6.90,-0.65,-0.23,0.26,-0.03,0.00,0.00,0,6,1
-6.62,6.97,-0.79,-0.15,0.17,-0.01,0.00,0.00,0,6,1
-6.07,8.21,-0.71,-0.27,0.26,-0.01,0.00,0.00,0,6,1
-6.13,9.99,-1.53,-0.70,0.03,0.50,0.00,0.00,0,6,1
-5.74,10.62,-0.62,-1.24,-0.25,0.60,0.00,0.00,0,6,1
-6.17,10.83,-0.14,-1.36,0.22,0.64,0.00,0.00,0,6,1
-7.19,7.43,0.95,-0.96,0.06,0.20,0.00,0.00,0,6,1
-7.40,6.16,1.44,-0.56,-0.34,0.24,0.00,351.93,0,6,1
-5.15,6.63,1.67,-0.37,-0.28,0.45,333.30,558.35,0,6,1
-3.75,4.93,3.27,-0.27,0.30,0.03,337.94,455.46,0,6,1
-3.82,4.49,3.52,-0.14,0.13,-0.24,607.90,810.61,0,6,1
-4.17,4.86,3.41,-0.14,-0.13,-0.09,1178.22,1516.56,1,6,1
-6.03,4.16,3.87,-0.31,0.08,0.57,525.85,596.55,0,7,1
-4.71,5.01,3.71,-0.18,0.29,0.51,499.69,561.44,0,7,1
-4.55,7.69,3.01,0.46,-0.24,-0.07,385.28,450.28,0,7,1
-5.66,9.84,1.87,0.87,-0.15,-0.48,316.06,358.95,0,7,1
-6.47,9.17,1.32,0.87,-0.87,-0.43,0.00,325.02,0,7,1
-3.65,8.39,0.28,0.81,-0.58,-0.72,0.00,0.00,0,7,1
-4.74,8.69,-0.08,1.02,-0.20,-0.76,0.00,0.00,0,7,1
-5.26,7.91,-1.07,1.38,0.07,-0.45,0.00,0.00,0,7,1
-6.59,8.55,-0.95,1.02,0.06,-0.46,0.00,0.00,0,7,1
-6.99,9.07,-1.44,0.29,-0.05,-0.02,0.00,0.00,0,7,1
-6.17,7.34,-1.68,-0.19,-0.14,0.20,0.00,0.00,0,7,1
-6.85,6.67,-0.83,-0.26,-0.14,0.05,0.00,0.00,0,7,1
-6.77,6.58,-0.70,-0.19,-0.05,0.04,0.00,0.00,0,7,1
-6.57,7.03,-0.69,-0.14,-0.02,0.09,0.00,0.00,0,7,1
-6.51,9.52,-1.29,-0.44,0.01,0.43,0.00,0.00,0,7,1
-6.02,10.91,-1.01,-1.02,-0.48,1.01,0.00,0.00,0,7,1
-5.48,11.25,-0.94,-1.51,0.37,1.01,0.00,0.00,0,7,1
-5.50,9.34,0.55,-1.42,0.27,0.80,0.00,304.13,0,7,1
-6.73,7.54,2.40,-0.92,0.44,0.47,308.30,386.30,0,7,1
-6.82,6.16,2.94,-0.41,-0.08,0.13,550.09,728.32,0,7,1
-4.20,3.33,3.64,-0.11,0.11,0.00,433.89,540.19,0,7,1
-3.08,4.18,4.35,-0.04,0.48,0.15,795.27,1121.46,0,7,1
-2.99,5.02,4.49,-0.00,0.66,-0.11,1722.40,2039.06,1,7,1
-5.25,4.29,3.53,-0.32,0.14,0.60,801.34,947.56,0,8,1
-3.32,5.94,2.35,0.03,0.21,0.41,597.09,717.41,0,8,1
-4.33,7.90,2.39,0.32,-0.18,-0.51,559.53,637.85,0,8,1
-4.20,8.37,0.77,0.56,0.72,-0.85,431.10,482.67,0,8,1
-6.14,9.83,1.44,0.94,0.82,-0.87,331.79,375.45,0,8,1
-6.47,9.53,0.43,1.43,-0.09,-0.85,0.00,0.00,0,8,1
-6.60,8.61,-1.84,1.49,0.03,-0.50,0.00,0.00,0,8,1
-6.54,8.14,-2.64,1.12,0.09,0.05,0.00,0.00,0,8,1
-6.07,8.30,-2.32,0.57,-0.13,0.05,0.00,0.00,0,8,1
-6.76,7.69,-2.64,-0.16,0.18,-0.09,0.00,0.00,0,8,1
-6.19,6.79,-1.75,-0.38,0.09,0.05,0.00,0.00,0,8,1
-6.09,6.38,-1.87,-0.26,-0.07,0.10,0.00,0.00,0,8,1
-6.39,6.61,-1.68,-0.14,0.06,0.02,0.00,0.00,0,8,1
-6.22,7.77,-1.66,-0.16,0.09,0.05,0.00,0.00,0,8,1
-6.01,10.89,-2.24,-0.82,-0.14,0.65,0.00,0.00,0,8,1
-5.53,11.44,-2.01,-1.60,0.01,0.77,0.00,0.00,0,8,1
-4.42,15.51,-5.94,-1.79,2.80,0.91,0.00,0.00,0,8,1
-5.32,5.68,0.17,-1.64,-1.28,0.41,0.00,350.40,0,8,1
-6.76,4.95,1.89,-0.84,-0.74,0.37,461.03,704.34,0,8,1
-4.81,5.27,3.43,-0.15,0.30,0.05,405.93,573.53,0,8,1
-2.84,3.35,3.92,0.13,0.04,-0.12,1099.71,1552.79,1,8,1
-3.88,3.18,5.14,-0.19,0.26,0.23,1566.66,1913.22,1,8,1
-5.08,3.93,4.42,-0.14,0.29,0.49,1300.38,1525.72,1,8,1
-3.76,5.79,3.00,0.09,0.45,0.29,839.40,968.90,0,9,1
-4.62,7.33,2.66,0.56,-0.32,-0.26,737.42,790.90,0,9,1
-5.24,8.64,0.95,0.87,-0.08,-0.59,496.80,556.81,0,9,1
-3.98,8.87,0.22,1.15,-0.38,-0.81,369.93,413.61,0,9,1
-4.65,8.35,-1.07,1.26,-0.13,-0.89,306.14,348.81,0,9,1
-7.18,8.30,-1.18,1.26,0.74,-0.70,0.00,0.00,0,9,1
-7.47,8.14,-2.01,1.21,0.21,-0.15,0.00,0.00,0,9,1
-6.23,8.32,-2.38,0.72,-0.22,-0.17,0.00,0.00,0,9,1
-8.07,7.64,-3.15,0.00,-0.30,-0.14,0.00,0.00,0,9,1
-7.20,6.32,-2.19,-0.28,-0.24,0.07,0.00,0.00,0,9,1
-6.77,5.92,-1.85,-0.19,0.09,0.06,0.00,0.00,0,9,1
-6.98,6.08,-2.04,-0.14,0.08,0.02,0.00,0.00,0,9,1
-7.02,7.23,-2.41,-0.17,0.13,0.06,0.00,0.00,0,9,1
-6.79,9.91,-3.23,-0.73,-0.11,0.52,0.00,0.00,0,9,1
-6.09,11.00,-1.93,-1.74,-0.15,1.04,0.00,0.00,0,9,1
-5.82,10.96,-0.33,-1.78,0.12,1.45,0.00,0.00,0,9,1
-6.37,8.80,0.02,-1.34,0.50,1.00,0.00,0.00,0,9,1
-4.30,7.48,0.23,-1.00,-0.37,0.59,395.85,577.11,0,9,1
-2.67,5.15,3.39,-0.39,-0.63,0.27,406.02,540.95,0,9,1
-4.12,5.25,2.96,0.04,0.27,-0.45,441.94,555.00,0,9,1
-4.63,4.74,3.70,-0.09,-0.25,-0.44,947.78,1247.18,0,9,1
-4.92,4.73,3.57,-0.02,-0.10,-0.14,1116.76,1516.04,1,9,1
-3.79,3.78,3.15,-0.06,0.09,0.71,558.44,662.49,0,10,1
-3.52,5.88,2.19,0.18,-0.03,0.24,506.22,597.43,0,10,1
-4.75,8.16,2.03,0.69,0.08,-0.67,422.59,488.89,0,10,1
-6.79,10.58,-0.52,1.33,-0.29,-0.53,330.79,369.99,0,10,1
-4.89,10.54,-0.60,1.13,-0.14,-0.43,0.00,309.21,0,10,1
-5.79,8.73,-0.51,1.20,-1.05,-0.99,0.00,0.00,0,10,1
-6.63,8.59,-1.80,1.62,0.39,-0.89,0.00,0.00,0,10,1
-7.18,9.41,-2.78,0.86,0.10,-0.34,0.00,0.00,0,10,1
-7.46,8.13,-2.15,-0.19,-0.07,-0.02,0.00,0.00,0,10,1
-6.93,6.75,-1.67,-0.39,-0.35,0.16,0.00,0.00,0,10,1
-6.21,6.48,-2.00,-0.32,-0.12,0.14,0.00,0.00,0,10,1
-6.81,6.67,-1.99,-0.48,0.14,0.05,0.00,0.00,0,10,1
-6.83,6.44,-0.93,-0.39,0.08,0.01,0.00,0.00,0,10,1
-6.99,8.14,-1.60,-0.49,-0.15,0.25,0.00,0.00,0,10,1
-6.49,9.57,-0.70,-1.03,-0.20,0.73,0.00,0.00,0,10,1
-6.56,11.07,-0.97,-1.52,0.20,0.99,0.00,0.00,0,10,1
-7.16,9.56,-0.11,-1.65,0.56,1.21,0.00,300.74,0,10,1
-4.82,7.87,0.55,-1.21,0.28,0.98,0.00,357.79,0,10,1
-2.32,5.62,3.10,-0.45,-0.31,0.29,349.25,478.67,0,10,1
-3.94,6.05,2.28,0.23,0.41,-0.36,411.58,534.37,0,10,1
-4.16,5.03,3.33,0.01,0.10,-0.56,675.78,887.65,0,10,1
-4.58,4.62,3.95,-0.02,0.03,-0.20,1387.09,1775.10,1,10,1
-4.70,4.61,4.28,-0.22,0.12,0.43,727.83,837.30,0,11,1
-3.42,4.89,3.60,-0.19,0.10,0.65,643.82,747.27,0,11,1
-3.78,6.11,3.56,0.12,0.23,0.06,512.04,595.10,0,11,1
-4.34,9.81,2.44,0.51,0.36,-0.75,451.88,513.39,0,11,1
-6.63,8.90,2.37,0.64,-0.22,-0.75,326.47,372.80,0,11,1
-6.23,8.44,1.02,0.84,-0.08,-0.73,0.00,340.16,0,11,1
-5.60,8.67,-0.62,0.90,-0.31,-0.88,0.00,312.53,0,11,1
-6.59,8.34,-0.92,1.01,-0.22,-0.69,0.00,0.00,0,11,1
-6.26,8.58,-0.47,0.87,0.26,-0.36,0.00,0.00,0,11,1
-6.72,8.51,-1.03,0.46,0.13,-0.22,0.00,0.00,0,11,1
-6.72,7.36,-1.27,-0.13,-0.19,0.11,0.00,0.00,0,11,1
-6.47,6.41,-1.41,-0.15,-0.18,0.19,0.00,0.00,0,11,1
-6.63,6.45,-0.91,-0.18,-0.17,0.09,0.00,0.00,0,11,1
-7.02,7.59,-0.84,-0.28,-0.07,0.11,0.00,0.00,0,11,1
-6.72,9.33,-0.65,-0.67,-0.10,0.51,0.00,0.00,0,11,1
-5.33,9.49,0.86,-1.21,-0.07,0.79,0.00,0.00,0,11,1
-5.89,10.05,0.53,-1.26,0.46,1.18,0.00,0.00,0,11,1
-6.19,8.65,0.61,-0.94,0.99,0.94,0.00,310.04,0,11,1
-4.01,8.06,1.29,-0.73,-0.41,0.47,309.37,410.72,0,11,1
-4.61,5.93,1.74,-0.21,-0.18,0.05,343.70,449.21,0,11,1
-5.36,5.38,2.89,-0.10,-0.22,-0.03,363.20,464.01,0,11,1
-5.27,6.06,3.57,0.22,0.35,0.36,1265.03,1740.38,1,11,1
-3.28,4.81,4.96,-0.24,0.40,-0.04,633.58,752.69,0,12,1
-2.77,4.58,3.76,-0.05,0.12,0.34,1023.12,1244.58,0,12,1
-2.96,6.05,2.86,-0.03,0.19,0.36,791.71,925.52,0,12,1
-3.16,7.15,2.89,0.28,-0.06,-0.17,627.20,714.14,0,12,1
-4.24,9.35,2.33,0.82,0.18,-0.62,481.34,544.45,0,12,1
-5.49,9.22,0.26,1.09,-0.14,-0.54,332.39,394.54,0,12,1
-5.35,9.50,-0.08,0.62,-0.54,-0.85,0.00,332.86,0,12,1
-5.78,8.94,-0.07,0.90,-0.26,-0.81,0.00,0.00,0,12,1
-6.79,8.53,-1.18,1.14,-0.30,-0.38,0.00,0.00,0,12,1
-5.73,8.38,-0.69,1.04,-0.45,-0.33,0.00,0.00,0,12,1
-6.89,8.52,-2.50,0.42,-0.36,-0.41,0.00,0.00,0,12,1
-6.76,7.59,-2.07,-0.18,-0.34,-0.06,0.00,0.00,0,12,1
-6.69,7.13,-1.67,-0.24,-0.27,0.27,0.00,0.00,0,12,1
-5.97,7.14,-1.57,-0.54,0.06,0.08,0.00,0.00,0,12,1
-6.37,8.58,-1.38,-0.77,0.11,0.26,0.00,0.00,0,12,1
-5.54,9.05,-0.90,-1.07,-0.24,0.51,0.00,0.00,0,12,1
-7.52,9.11,-0.30,-1.25,-0.06,0.55,0.00,0.00,0,12,1
-7.30,9.06,0.55,-1.19,0.61,0.70,0.00,0.00,0,12,1
-8.19,8.61,0.74,-0.78,0.26,0.63,0.00,339.92,0,12,1
-7.98,8.01,2.07,-0.49,0.19,0.53,324.31,431.87,0,12,1
-6.69,7.23,2.31,-0.12,0.37,0.35,383.75,602.44,0,12,1
-4.32,4.80,2.59,-0.20,-0.26,-0.06,424.06,571.75,0,12,1
-4.20,5.36,3.14,0.09,0.14,0.17,1117.69,1525.68,1,12,1
-3.61,5.30,4.11,-0.25,0.32,0.01,509.14,585.97,0,13,1
-4.73,5.77,3.62,-0.23,0.51,0.32,465.13,514.34,0,13,1
-3.05,5.32,3.29,-0.16,0.33,0.39,708.90,818.86,0,13,1
-4.02,7.73,2.60,0.19,0.13,-0.20,453.62,522.06,0,13,1
-5.19,8.08,2.12,0.41,-0.25,-0.67,357.96,412.46,0,13,1
-6.64,8.24,2.43,0.70,-0.10,-0.63,314.85,356.36,0,13,1
-6.55,9.37,0.22,0.95,-0.43,-0.65,0.00,0.00,0,13,1
-7.13,9.45,-0.19,0.91,-0.09,-0.79,0.00,303.75,0,13,1
-6.66,8.96,-0.55,0.89,0.14,-0.42,0.00,0.00,0,13,1
-4.99,7.92,-1.05,0.68,0.01,-0.15,0.00,0.00,0,13,1
-6.36,8.00,-0.89,0.31,0.12,-0.33,0.00,0.00,0,13,1
-7.13,7.53,-0.97,0.03,0.20,-0.17,0.00,0.00,0,13,1
-7.60,7.20,-1.15,-0.27,0.33,0.06,0.00,0.00,0,13,1
-7.23,7.46,-0.29,-0.41,0.04,0.45,0.00,0.00,0,13,1
-7.01,7.77,-0.84,-0.53,-0.10,0.78,0.00,0.00,0,13,1
-5.00,6.85,-0.40,-0.43,0.25,0.51,0.00,0.00,0,13,1
-5.00,6.84,0.32,-0.31,0.22,0.05,0.00,0.00,0,13,1
-4.95,7.10,0.76,0.07,-0.08,-0.22,0.00,0.00,0,13,1
-5.61,7.48,-0.19,0.13,-0.11,-0.28,0.00,318.99,0,13,1
-5.91,7.44,-0.32,-0.01,-0.09,-0.22,0.00,362.95,0,13,1
-6.13,7.23,-0.31,-0.08,-0.02,-0.12,0.00,301.56,0,13,1
-6.63,7.11,-0.47,-0.05,0.07,0.04,0.00,0.00,0,13,1
-6.15,6.84,-0.02,-0.02,0.12,0.03,0.00,0.00,0,13,1
-6.27,6.95,-0.10,-0.02,0.10,-0.11,0.00,0.00,0,13,1
-6.51,7.02,-0.14,0.01,0.08,-0.13,0.00,0.00,0,13,1
