ax,ay,az,gx,gy,gz,mav,rms,label_kontraksi,repetisi,id_orang
3,-0.12,9.24,1.54,1.26,-0.95,1510.03,1894.94,1,0,1
0.92,2.27,9.10,1.38,0.79,-0.40,844.59,1072.22,0,1,1
-0.34,3.51,8.67,1.43,2.18,-0.61,943.05,1119.96,0,1,1
-2.74,5.94,7.60,1.72,2.59,-0.40,1113.65,1337.55,0,1,1
-6.95,8.22,5.12,2.13,3.26,0.26,928.08,1136.92,0,1,1
-8.56,8.79,1.63,1.59,3.61,1.86,739.48,856.43,0,1,1
-5.75,8.12,0.26,0.45,1.18,2.77,649.35,744.23,0,1,1
-1.87,8.74,-0.40,0.56,1.05,2.99,600.84,694.20,0,1,1
1.65,6.66,-1.68,0.23,0.75,2.90,857.21,1075.62,0,1,1
5.03,5.20,-1.15,-0.13,0.21,2.13,535.46,595.87,0,1,1
6.49,5.15,0.63,-0.23,0.73,1.43,387.88,435.32,0,1,1
6.49,5.15,0.63,-0.23,0.73,1.43,330.02,399.35,0,1,1
7.91,5.43,0.50,-0.08,0.55,0.97,297.16,351.12,0,1,1
8.44,5.69,0.45,-0.33,-0.67,0.26,304.22,399.29,0,1,1
9.00,6.83,-0.81,-0.41,0.01,-0.09,185.46,220.41,0,1,1
7.72,7.19,-1.48,-0.13,-0.15,-0.16,169.00,205.94,0,1,1
6.98,6.73,-1.31,-0.24,-0.02,0.04,264.00,421.88,0,1,1
7.37,6.43,-0.19,-0.30,-0.00,0.13,296.38,395.83,0,1,1
8.04,6.65,-0.40,-0.12,0.01,-0.03,326.32,487.62,0,1,1
7.26,6.84,-0.66,-0.07,-0.07,-0.08,279.91,354.77,0,1,1
7.40,6.92,-0.74,-0.14,0.07,-0.11,382.17,495.47,0,1,1
7.72,6.93,-0.40,-0.15,-0.13,-0.12,331.83,426.35,0,1,1
8.26,7.27,-0.98,-0.20,0.27,-0.30,538.26,802.64,0,1,1
8.31,9.48,-0.30,0.04,0.45,-0.62,589.36,864.76,0,1,1
9.79,9.14,-0.38,0.02,2.01,-1.71,563.50,765.14,0,1,1
5.76,9.10,-1.16,-0.05,0.40,-2.65,719.43,1001.13,0,1,1
-0.50,6.16,0.60,-0.19,-0.88,-2.75,998.58,1399.49,1,1,1
-3.20,4.81,1.71,-0.24,0.59,-2.21,626.63,876.07,0,2,1
-4.99,6.70,1.79,0.17,0.25,-0.47,510.34,647.08,0,2,1
-4.32,9.80,0.61,0.03,0.61,-0.10,513.98,611.36,0,2,1
-2.53,7.49,0.01,0.01,1.80,0.75,415.69,469.13,0,2,1
-2.18,7.61,-0.17,-0.41,1.67,1.72,350.91,390.68,0,2,1
-2.17,4.71,2.70,-1.07,0.93,1.22,848.08,1322.93,0,2,1
1.40,10.09,0.52,-0.11,0.22,0.29,1273.21,1778.07,1,2,1
-0.96,11.19,0.85,-0.12,0.17,-1.42,2070.41,2226.86,1,2,1
-4.07,10.97,1.96,0.62,0.35,-2.16,1595.58,1656.72,1,2,1
-6.55,13.60,0.97,0.92,0.24,-1.52,1365.16,1444.60,1,2,1
-6.08,12.50,-0.70,0.11,0.00,-0.04,1208.70,1333.20,1,2,1
-3.61,9.36,-0.16,-0.45,0.04,0.50,1107.48,1234.79,0,3,1
-3.56,12.98,-0.64,-0.61,0.23,0.68,1576.86,1822.53,1,3,1
-3.08,15.06,1.46,-0.86,-0.18,1.39,1430.70,1608.41,1,3,1
-4.44,10.06,2.89,-0.47,-0.26,0.37,1375.83,1452.10,1,3,1
-4.36,6.69,2.73,0.11,-0.96,-0.74,1130.45,1180.66,0,4,1
-2.80,3.90,2.25,0.55,-0.29,-1.16,791.06,992.59,0,4,1
-4.15,5.11,1.50,0.41,-0.07,-0.71,994.03,1243.76,0,4,1
-2.51,6.12,1.75,-0.02,-0.75,-0.30,735.57,880.16,0,4,1
-3.19,7.25,0.94,0.30,0.68,-0.31,643.90,777.93,0,4,1
-4.21,7.94,0.95,-0.16,0.16,0.07,515.52,647.19,0,4,1
-4.55,6.09,1.46,-0.31,0.81,0.69,441.05,529.81,0,4,1
-5.50,3.51,3.16,-0.49,0.36,1.77,488.78,647.13,0,4,1
-2.73,6.20,2.08,-0.52,0.39,1.47,403.36,451.45,0,4,1
-0.59,9.68,0.94,-0.34,0.62,0.40,1107.55,1575.87,1,4,1
-2.82,9.08,1.57,-0.12,0.47,-0.66,1459.76,1806.07,1,4,1
-2.53,11.30,2.34,0.42,-1.03,-1.27,1625.54,1851.51,1,4,1
-4.89,12.63,0.71,0.77,-1.10,-0.85,1532.42,1663.83,1,4,1
-5.32,12.74,-0.48,0.12,-0.07,-0.27,1433.52,1479.53,1,4,1
-3.38,9.43,0.46,-0.34,-0.25,0.26,1100.32,1168.63,0,5,1
-3.98,9.16,0.51,-0.20,0.30,0.43,966.25,1122.90,0,5,1
-3.92,12.07,1.16,-0.45,0.23,0.70,1669.49,1944.71,1,5,1
-3.45,12.34,2.12,-0.43,0.08,0.96,1382.26,1589.79,1,5,1
-2.07,12.13,2.24,-0.28,-0.13,0.61,1099.29,1211.04,0,6,1
-1.55,9.45,1.00,-0.16,-0.41,-0.32,929.26,1025.89,0,6,1
-3.76,4.94,1.86,-0.04,-0.98,-1.31,789.24,941.99,0,6,1
-2.45,4.99,2.22,0.16,0.12,-1.29,744.41,960.05,0,6,1
-3.78,5.54,3.27,-0.05,-0.60,-1.15,673.01,787.23,0,6,1
-4.54,6.81,2.69,0.25,0.10,-0.59,550.42,642.62,0,6,1
-5.28,7.77,2.10,0.02,0.12,-0.01,602.05,731.58,0,6,1
-5.49,7.92,2.35,-0.04,-0.01,0.06,525.69,609.38,0,6,1
-4.67,5.22,1.48,-0.30,0.65,0.61,455.81,510.93,0,6,1
-3.83,4.23,2.94,-0.52,0.48,1.63,548.89,712.43,0,6,1
-1.26,5.81,3.09,-0.16,0.42,1.73,581.47,716.20,0,6,1
-2.16,9.87,1.38,0.03,1.31,0.84,1293.58,1692.63,1,6,1
-1.43,7.68,2.43,-0.09,0.01,-0.08,1016.94,1342.11,0,7,1
-1.98,9.59,1.98,0.15,0.30,-0.78,1014.84,1322.14,0,7,1
-3.35,10.86,2.66,0.99,0.06,-1.52,702.49,777.66,0,7,1
-7.15,12.68,0.13,0.47,0.14,-1.09,2141.69,2341.44,1,7,1
-5.65,11.34,1.40,-0.34,-0.26,0.11,1733.50,1792.77,1,7,1
-5.02,8.20,0.13,-0.29,0.01,0.45,1315.30,1352.95,1,7,1
-4.15,9.31,1.21,-0.28,0.29,0.42,1198.21,1349.71,0,8,1
-3.65,12.41,1.64,-0.34,0.24,0.94,1993.26,2041.80,1,8,1
-2.78,11.70,1.18,-0.48,0.15,0.78,1190.89,1297.91,0,9,1
-3.18,10.03,1.76,-0.31,0.05,0.00,858.73,933.20,0,9,1
-7.67,7.88,3.06,-0.02,-1.63,-0.61,741.74,806.21,0,9,1
-5.77,4.02,3.03,0.30,0.10,-1.15,2110.12,2297.63,1,9,1
-2.77,5.51,1.83,0.19,-0.36,-0.92,1080.57,1206.78,0,10,1
-4.64,5.18,3.68,-0.05,-1.16,-0.96,815.13,928.73,0,10,1
-4.47,7.34,2.20,0.18,0.64,0.03,699.29,827.17,0,10,1
-4.14,6.80,2.55,-0.04,0.08,0.22,1271.39,1637.57,1,10,1
-4.59,6.46,2.60,-0.23,0.10,0.39,1137.47,1342.73,0,11,1
-3.78,3.00,3.19,-0.43,0.98,1.37,1278.46,1471.39,1,11,1
-2.42,7.66,1.09,-0.06,0.89,1.76,792.90,886.75,0,12,1
-2.71,8.74,1.24,-0.76,0.72,0.74,743.36,865.78,0,12,1
-2.45,7.50,2.53,-0.38,0.03,-0.16,606.09,677.40,0,12,1
-3.07,9.84,2.61,0.19,-0.11,-0.49,1320.53,1708.49,1,12,1
-3.53,11.58,1.44,0.47,-0.56,-0.76,1903.72,2032.98,1,12,1
-4.47,11.00,1.28,0.39,0.00,-0.99,1476.40,1567.34,1,12,1
-2.92,11.71,0.61,0.05,0.17,-0.20,1348.74,1446.35,1,12,1
-4.45,8.88,1.06,-0.29,0.20,0.21,1179.09,1304.52,0,13,1
-3.77,7.93,1.01,-0.24,0.02,0.28,1176.28,1316.21,0,13,1
-4.34,8.15,1.61,-0.08,0.16,0.11,1167.91,1381.10,1,13,1
-3.83,8.57,1.51,-0.09,-0.01,0.10,1449.98,1648.08,1,13,1
-3.57,12.29,1.68,-0.18,0.00,0.41,1477.90,1625.18,1,13,1
-1.83,13.85,2.29,-0.43,-0.70,0.90,1305.31,1455.35,1,13,1
-3.02,11.51,1.49,-0.39,-0.90,0.21,1099.73,1248.28,0,14,1
-5.01,7.96,2.34,-0.32,-0.70,-0.56,879.20,938.23,0,14,1
-2.53,4.74,1.64,-0.37,-1.85,-0.90,741.50,835.69,0,14,1
-2.58,4.07,3.68,0.27,0.42,-1.10,629.98,718.44,0,14,1
-3.85,5.30,3.27,0.16,-0.76,-0.95,983.62,1273.17,0,14,1
-4.15,6.52,2.94,0.07,-0.29,-0.19,715.38,850.72,0,14,1
-4.36,7.14,2.50,-0.11,-0.00,0.11,590.97,666.79,0,14,1
-4.49,6.41,2.64,-0.22,0.18,0.21,502.40,573.79,0,14,1
-6.55,4.62,3.61,-0.80,0.45,1.22,522.56,618.44,0,14,1
-6.55,4.62,3.61,-0.80,0.45,1.22,1190.62,1549.03,1,14,1
-3.78,3.40,4.23,-0.36,1.09,1.95,742.20,890.18,0,15,1
-1.00,8.26,1.36,-0.17,0.87,1.38,607.24,683.48,0,15,1
-1.40,7.93,2.12,-0.28,0.89,0.03,620.19,731.07,0,15,1
-3.78,9.69,4.53,0.15,0.04,-0.64,1985.11,2208.32,1,15,1
-3.03,12.85,1.87,0.85,0.47,-0.65,1605.71,1713.60,1,15,1
-2.90,12.53,1.31,0.40,0.12,-0.59,1483.24,1621.96,1,15,1
-3.51,10.86,0.79,-0.05,-0.24,0.07,1454.78,1561.63,1,15,1
-3.05,8.90,0.85,-0.14,-0.01,0.30,1207.67,1321.96,1,15,1
-2.91,8.62,1.26,-0.09,-0.04,0.20,988.06,1108.66,0,16,1
-2.82,9.61,1.36,-0.03,0.13,0.18,733.69,823.19,0,16,1
-2.09,12.63,1.78,-0.21,-0.05,0.60,553.53,612.40,0,16,1
-1.19,12.41,1.85,-0.41,-0.11,0.81,422.19,477.31,0,16,1
-0.71,11.52,0.65,-0.39,-1.01,0.34,469.09,599.63,0,16,1
-1.24,8.81,1.86,-0.41,-1.00,-0.56,471.97,532.77,0,16,1
-1.67,5.37,2.84,0.13,-1.25,-1.31,556.36,685.27,0,16,1
-2.29,4.69,2.44,0.13,-0.27,-1.56,702.68,950.67,0,16,1
-4.51,5.50,2.85,-0.25,-0.62,-0.99,566.95,652.89,0,16,1
-3.79,6.36,2.92,0.01,-0.04,0.02,450.75,544.26,0,16,1
-3.68,7.39,2.50,-0.06,0.67,0.25,459.18,564.36,0,16,1
-3.73,5.35,2.51,-0.22,0.39,0.93,518.40,632.30,0,16,1
-3.99,2.44,3.73,-0.35,0.47,1.59,600.66,677.66,0,16,1
-1.24,7.76,1.91,0.11,0.56,1.21,506.83,545.29,0,16,1
-1.51,10.63,0.79,-0.16,0.32,-0.09,701.17,974.76,0,16,1
-2.62,10.38,1.03,0.01,-0.27,-0.60,1966.36,2250.81,1,16,1
-3.64,11.72,1.33,0.31,0.14,-0.98,1634.66,1766.15,1,16,1
-4.15,11.67,0.95,0.22,-0.05,-0.83,1404.41,1534.36,1,16,1
-4.07,10.83,1.30,-0.05,0.04,-0.11,1302.76,1426.57,1,16,1
-3.22,8.91,0.82,-0.13,-0.09,0.28,1344.96,1401.63,1,16,1
-4.47,8.20,1.13,-0.18,-0.03,0.13,977.25,999.66,0,17,1
-4.56,8.66,1.73,-0.16,0.04,0.14,661.04,671.59,0,17,1
-4.19,9.72,1.63,-0.17,0.13,0.23,386.32,402.74,0,17,1
-2.69,12.22,1.26,-0.58,-0.03,0.55,246.76,301.36,0,17,1
-2.50,12.21,2.53,-0.66,-0.36,0.49,575.23,861.06,0,17,1
-3.53,10.07,3.37,-0.29,-0.78,-0.15,460.36,603.98,0,17,1
-3.91,7.64,2.69,0.20,-0.65,-0.46,367.88,409.35,0,17,1
-1.81,5.03,2.84,0.33,-0.68,-1.02,520.30,664.28,0,17,1
-3.04,4.03,2.38,-0.13,-0.14,-1.51,520.83,663.46,0,17,1
-5.05,4.37,3.70,-0.16,-1.12,-0.68,802.27,1213.72,0,17,1
-5.54,6.33,3.46,-0.11,0.54,0.23,522.06,606.75,0,17,1
-4.70,6.22,3.53,-0.12,0.24,0.44,498.78,586.20,0,17,1
-4.30,2.77,3.23,-0.15,0.90,1.12,500.85,569.44,0,17,1
-3.35,4.82,2.74,0.09,0.15,1.57,551.83,665.35,0,17,1
-2.42,9.26,0.45,0.01,0.96,1.00,419.94,469.91,0,17,1
-3.22,8.05,1.81,-0.24,0.25,0.01,617.17,896.10,0,17,1
-4.39,9.84,1.84,0.08,-0.23,-0.39,1452.56,1861.63,1,17,1
-3.48,11.55,1.78,0.59,0.15,-0.77,1336.83,1661.88,1,17,1
-3.43,11.59,0.99,0.47,0.06,-0.58,1868.34,1939.30,1,17,1
-3.97,10.67,0.26,0.00,-0.08,0.06,1352.68,1384.43,1,17,1
-3.33,8.77,-0.03,-0.32,0.18,0.18,1051.83,1126.63,0,18,1
-3.41,8.17,1.05,-0.27,0.07,0.14,997.15,1173.62,0,18,1
-4.34,8.30,1.19,-0.04,0.34,0.11,1044.46,1260.42,0,18,1
-3.68,9.85,0.99,-0.11,0.24,0.12,873.24,1063.69,0,18,1
-3.32,11.81,1.34,-0.43,-0.09,0.56,833.02,1073.05,0,18,1
-2.85,11.83,1.66,-0.53,-0.20,0.51,1253.18,1569.25,1,18,1
-2.77,10.80,2.30,-0.36,-0.23,0.08,1696.00,1898.91,1,18,1
-4.03,8.69,3.31,-0.17,-0.18,-0.47,1428.37,1560.06,1,18,1
-3.83,4.67,3.48,0.45,-1.27,-1.12,1513.80,1544.16,1,18,1
-4.75,4.44,2.32,0.20,0.05,-1.33,830.93,911.65,0,19,1
-4.55,4.23,2.40,0.09,-0.86,-0.45,654.10,803.53,0,19,1
-4.61,7.30,2.59,-0.16,-0.30,0.15,516.62,585.55,0,19,1
-4.60,7.10,2.84,-0.20,0.15,0.48,529.57,582.70,0,19,1
-3.34,4.63,3.15,-0.22,0.36,0.86,505.53,608.58,0,19,1
-3.63,6.39,2.25,-0.15,1.11,1.50,1150.61,1511.38,1,19,1
-3.44,4.84,3.00,-0.63,0.57,1.27,673.37,760.89,0,20,1
-1.70,8.80,2.39,-0.20,-0.22,0.53,596.05,681.87,0,20,1
-1.08,12.79,0.98,-0.03,0.28,-0.43,902.25,1251.69,0,20,1
-2.02,11.44,2.74,0.17,-0.08,-0.72,1881.61,2091.14,1,20,1
-2.27,11.59,2.63,0.37,0.51,-0.56,1623.14,1730.27,1,20,1
-2.83,10.98,1.25,0.27,0.19,0.06,1386.39,1510.77,1,20,1
-2.61,9.11,0.98,-0.08,-0.28,0.19,1327.39,1448.99,1,20,1
-3.22,8.72,1.26,-0.11,0.07,0.12,1209.06,1329.90,1,20,1
-2.64,8.76,1.59,-0.06,0.09,0.06,1106.36,1166.96,0,21,1
-3.48,8.79,1.71,-0.02,0.07,-0.02,824.10,858.42,0,21,1
-3.11,8.96,1.48,-0.03,0.01,0.00,489.12,546.46,0,21,1
-3.41,8.97,1.46,-0.11,0.03,-0.01,326.09,386.08,0,21,1
-3.03,8.93,1.46,-0.05,-0.01,0.03,358.51,411.85,0,21,1
-3.32,8.93,1.43,-0.09,0.04,0.06,326.18,377.42,0,21,1
-3.23,8.86,1.63,-0.06,0.14,0.03,345.31,380.15,0,21,1
-2.99,8.85,1.35,-0.02,0.11,0.07,277.10,305.44,0,21,1
-2.56,9.50,1.23,-0.05,0.14,0.02,279.60,322.29,0,21,1
-2.89,9.42,1.43,-0.10,0.08,0.22,240.31,272.74,0,21,1
-1.59,12.44,0.90,-0.18,0.08,0.54,282.72,357.22,0,21,1
-0.75,14.90,2.28,-0.41,-0.40,1.23,341.29,456.95,0,21,1
-0.20,11.99,2.32,-0.39,-0.85,0.32,465.49,689.30,0,21,1
-2.26,8.13,3.67,-0.31,-1.33,-1.09,452.90,537.08,0,21,1
-2.46,3.97,3.32,0.29,-1.01,-1.86,501.87,675.51,0,21,1
-3.20,4.24,2.21,0.21,-0.07,-1.48,711.91,949.51,0,21,1
-4.16,6.45,2.52,-0.09,-0.73,-0.58,663.06,830.99,0,21,1
-3.61,5.04,3.02,-0.18,0.27,0.25,491.48,563.57,0,21,1
-3.86,5.55,3.03,-0.36,0.10,1.28,410.72,462.99,0,21,1
-2.48,4.96,2.95,-0.33,0.55,1.69,369.77,472.45,0,21,1
-2.05,7.06,3.11,0.15,1.05,0.91,352.88,396.02,0,21,1
-1.16,13.70,-0.47,0.07,0.87,-0.26,262.07,298.87,0,21,1
-4.22,11.40,1.80,-0.15,0.06,-0.77,310.19,387.00,0,21,1
-2.44,11.16,2.62,0.39,0.68,-0.86,1224.14,1750.56,1,21,1
-4.09,12.06,2.03,0.34,-0.07,-0.30,2028.61,2228.65,1,21,1
-4.37,9.77,1.21,0.06,0.33,0.15,1615.07,1719.60,1,21,1
-3.66,8.09,0.80,-0.19,0.20,0.12,1428.95,1566.39,1,21,1
-4.10,8.35,1.57,-0.15,0.33,0.03,1167.28,1337.07,0,22,1
-4.21,8.46,1.33,-0.02,0.29,0.04,1145.98,1227.13,0,22,1
-4.21,8.46,1.33,-0.02,0.29,0.04,948.04,978.39,0,22,1
-3.92,8.50,1.34,-0.10,0.12,0.04,501.21,569.05,0,22,1
-4.25,8.42,1.48,-0.09,0.08,0.02,379.49,424.95,0,22,1
-3.82,8.38,1.22,-0.02,0.03,0.03,1162.93,1650.00,1,22,1
-3.87,8.51,1.27,-0.05,0.01,0.01,688.73,887.88,0,23,1
-3.81,8.53,1.40,-0.07,0.04,0.03,455.87,530.96,0,23,1
-4.04,8.58,1.32,-0.04,-0.02,0.05,373.59,423.22,0,23,1
-3.73,8.55,1.20,-0.05,-0.05,0.02,339.66,374.72,0,23,1
-3.76,9.06,1.15,-0.07,0.04,0.06,338.45,382.66,0,23,1
-3.48,10.12,1.18,-0.12,0.02,0.27,353.81,420.52,0,23,1
-2.32,11.91,1.64,-0.26,-0.51,0.44,367.94,468.13,0,23,1
-3.49,12.37,2.01,-0.44,-0.09,0.57,424.91,557.89,0,23,1
-2.32,10.50,2.07,-0.36,-0.64,0.16,1273.60,1752.91,1,23,1
-4.46,7.65,2.75,-0.17,-0.62,-0.65,849.63,1093.83,0,24,1
-1.82,5.09,2.51,0.09,-1.58,-1.00,644.26,715.56,0,24,1
-3.30,3.39,2.84,0.50,0.12,-0.99,1222.18,1651.78,1,24,1
-3.46,4.77,2.49,-0.09,-0.53,-0.43,1610.60,1852.22,1,24,1
-2.90,4.88,2.80,-0.15,0.34,0.35,958.72,1074.60,0,25,1
-3.22,5.37,2.23,0.09,0.77,1.20,769.16,839.50,0,25,1
-3.86,5.02,2.38,-0.63,1.05,1.42,493.09,564.88,0,25,1
-1.94,7.15,2.48,-0.33,0.30,0.64,653.79,785.60,0,25,1
-2.50,11.18,2.00,-0.09,0.75,-0.46,497.57,585.85,0,25,1
-3.79,10.45,3.38,0.38,0.68,-1.08,1222.11,1613.17,1,25,1
-5.41,12.28,1.41,0.89,-0.11,-0.85,1256.52,1544.61,1,25,1
-5.36,11.63,0.67,0.16,0.03,-0.16,1339.87,1590.00,1,25,1
-3.76,8.80,0.12,-0.17,-0.02,0.22,982.35,1232.59,0,26,1
-3.91,7.77,0.44,-0.32,-0.07,0.22,1184.03,1400.10,1,26,1
-4.49,7.74,1.04,-0.22,0.25,0.04,1121.32,1315.22,0,27,1
-5.03,7.95,1.57,-0.14,0.16,0.01,1514.29,1654.81,1,27,1
-4.96,8.08,1.49,-0.05,0.10,-0.00,1457.50,1573.62,1,27,1
-4.92,8.13,1.36,-0.08,-0.09,0.04,1380.34,1505.66,1,27,1
-4.50,8.17,1.05,-0.04,-0.01,-0.04,1370.99,1499.78,1,27,1
-4.71,8.20,1.11,-0.06,-0.02,0.04,1323.73,1472.99,1,27,1
-4.61,8.15,1.15,-0.05,-0.01,0.02,1339.64,1481.35,1,27,1
-4.86,8.17,1.16,-0.09,0.05,0.01,1293.58,1437.99,1,27,1
-4.60,8.30,1.22,-0.05,-0.01,0.01,1257.93,1417.44,1,27,1
-3.87,10.66,1.34,-0.07,0.01,0.16,1282.60,1443.15,1,27,1
-3.96,13.13,2.36,-0.28,-0.35,0.52,1258.32,1418.27,1,27,1
-4.39,12.36,2.47,-0.25,-0.73,0.45,1837.87,1961.53,1,27,1
-5.69,9.22,0.94,-0.09,-0.20,-0.31,1358.24,1508.54,1,27,1
-6.05,5.87,1.43,0.18,-1.57,-0.75,1055.30,1212.42,0,28,1
-3.78,2.35,2.60,0.31,-0.24,-1.03,937.16,1060.31,0,28,1
-3.04,5.71,1.55,-0.02,-0.41,-0.65,797.02,873.07,0,28,1
-2.90,5.30,2.53,-0.15,0.23,0.29,963.31,1323.47,0,28,1
-4.17,5.38,3.67,-0.36,0.05,1.18,719.88,800.41,0,28,1
-2.63,5.80,2.85,-0.17,0.77,1.51,894.13,1105.66,0,28,1
-3.07,6.13,1.89,-0.27,1.27,0.88,778.28,909.35,0,28,1
-3.13,7.93,2.94,0.02,0.52,-0.11,732.12,821.25,0,28,1
-4.31,11.44,2.03,0.36,0.92,-1.32,887.67,1114.16,0,28,1
-8.04,12.35,2.74,0.73,-0.37,-1.38,1948.24,2092.97,1,28,1
-8.13,11.52,1.08,0.57,0.11,-0.35,1524.76,1617.20,1,28,1
-5.88,8.90,1.00,-0.19,0.25,0.23,1241.42,1322.57,1,28,1
-5.58,7.18,0.56,-0.31,0.07,0.32,1358.63,1510.35,1,28,1
-4.75,6.87,1.02,-0.18,0.09,0.19,1271.64,1396.07,1,28,1
-5.13,7.37,1.51,-0.04,0.17,-0.06,1265.72,1418.27,1,28,1
-6.02,7.78,1.61,0.00,0.06,-0.00,1350.60,1489.98,1,28,1
-5.54,7.69,1.28,-0.04,-0.07,0.06,1291.58,1463.18,1,28,1
-5.28,7.59,1.04,-0.07,-0.05,0.02,1271.61,1427.68,1,28,1
-5.19,7.61,1.13,-0.06,-0.01,0.05,1269.69,1447.94,1,28,1
-5.27,7.66,1.10,-0.07,0.03,0.04,1317.18,1484.91,1,28,1
-5.31,8.11,1.35,-0.05,0.01,0.02,1283.55,1437.56,1,28,1
-5.52,11.48,1.89,-0.19,-0.19,0.56,1373.65,1537.33,1,28,1
-4.04,12.22,1.66,-0.34,-0.51,0.95,1205.29,1324.65,1,28,1
-4.13,11.31,2.06,-0.16,-0.36,0.46,1223.94,1399.33,1,28,1
-3.33,8.93,1.56,-0.10,-0.31,-0.44,1460.24,1582.01,1,28,1
-4.69,3.57,2.68,0.32,-1.29,-1.00,1313.45,1457.68,1,28,1
-4.49,2.43,3.04,0.29,0.72,-0.91,1472.16,1520.66,1,28,1
-3.39,4.75,2.10,0.09,0.19,-0.06,902.93,1026.88,0,29,1
-3.28,4.01,2.74,-0.34,0.15,0.65,805.96,999.57,0,29,1
-3.19,5.03,2.44,-0.35,0.63,1.44,647.10,748.67,0,29,1
-3.88,6.53,2.98,-0.53,0.88,1.23,576.36,639.24,0,29,1
-3.05,8.45,2.56,-0.33,0.89,0.21,1006.84,1370.74,0,29,1
-2.13,9.37,2.50,-0.05,0.36,-0.60,915.96,1166.74,0,29,1
-3.67,11.49,1.66,0.62,0.50,-0.96,1488.63,1774.65,1,29,1
-4.79,11.90,1.72,0.19,0.26,-0.52,1758.20,1862.14,1,29,1
-4.05,9.65,0.95,0.01,0.38,-0.18,1408.70,1478.58,1,29,1
-4.04,8.37,0.67,-0.02,0.03,0.20,1109.93,1208.45,0,30,1
-4.25,7.80,0.91,-0.19,0.06,0.14,1059.31,1217.08,0,30,1
-5.09,7.77,1.47,-0.14,0.12,0.03,940.95,1112.71,0,30,1
-4.65,8.03,1.62,-0.07,-0.05,0.07,873.66,1049.82,0,30,1
-4.66,8.04,1.14,-0.02,-0.04,-0.01,892.85,1126.18,0,30,1
-4.58,8.15,1.16,-0.09,-0.01,0.03,901.43,1148.82,0,30,1
-4.58,8.17,1.19,-0.01,0.05,0.03,800.88,1023.06,0,30,1
-4.54,8.20,1.24,-0.06,0.01,0.02,832.51,1078.41,0,30,1
-4.66,8.24,1.30,-0.06,-0.04,0.06,883.24,1183.14,0,30,1
-4.46,8.51,1.12,-0.06,-0.05,0.08,861.78,1154.67,0,30,1
-3.98,10.62,1.27,-0.17,0.08,0.23,895.00,1188.58,0,30,1
-3.83,12.03,1.99,-0.39,-0.18,0.56,955.43,1225.02,0,30,1
-3.71,11.56,2.67,-0.44,-0.52,0.45,1119.10,1361.47,0,30,1
-2.34,10.01,2.72,-0.31,-0.73,-0.29,1409.20,1627.72,1,30,1
-3.58,6.23,3.58,-0.08,-1.62,-1.05,1282.76,1453.11,1,30,1
-1.24,2.84,3.38,0.34,-0.16,-1.46,1575.89,1698.03,1,30,1
-4.13,3.80,2.98,0.25,-0.69,-0.54,1320.30,1415.57,1,30,1
-3.76,4.57,2.82,-0.18,0.29,0.63,963.32,1186.78,0,31,1
-4.35,4.11,3.62,-0.10,0.90,1.60,819.40,982.78,0,31,1
-3.12,7.50,1.75,-0.11,1.34,1.56,792.92,869.04,0,31,1
-3.23,7.17,2.60,-0.03,0.84,0.85,548.95,606.93,0,31,1
-1.30,12.76,0.32,0.13,-0.21,0.11,419.64,460.37,0,31,1
-2.85,11.73,1.66,0.15,-0.54,-0.44,722.45,1127.89,0,31,1
-2.83,12.06,2.63,0.18,-0.41,-0.24,1888.32,2215.27,1,31,1
-3.07,10.89,1.45,0.18,0.54,0.06,1175.60,1384.50,1,31,1
-3.07,10.89,1.45,0.18,0.54,0.06,1513.36,1708.95,1,31,1
-1.98,9.31,0.83,-0.07,0.17,0.10,1460.51,1617.12,1,31,1
-2.84,8.89,0.94,-0.11,0.19,0.20,1564.16,1654.69,1,31,1
-2.21,8.87,1.19,-0.06,0.06,0.08,1494.26,1590.04,1,31,1
-2.63,9.00,1.33,-0.09,0.05,0.01,1464.08,1562.90,1,31,1
-2.99,9.04,1.43,-0.02,0.15,-0.01,1469.14,1566.19,1,31,1
-2.64,9.16,1.20,-0.05,0.06,-0.00,1469.96,1554.43,1,31,1
-2.65,9.04,1.37,-0.05,0.02,0.03,1448.53,1533.24,1,31,1
-2.67,9.14,1.26,-0.06,-0.01,-0.00,1470.84,1548.14,1,31,1
-2.45,10.26,1.22,-0.12,-0.01,0.04,1403.65,1512.76,1,31,1
-1.70,11.82,1.34,-0.20,-0.44,0.32,1342.04,1541.54,1,31,1
-1.36,13.62,1.41,-0.41,0.05,0.24,1160.67,1262.40,0,32,1
-2.74,12.14,1.61,-0.47,-0.71,-0.20,1227.49,1473.59,1,32,1
-5.46,7.99,3.28,-0.19,-1.61,-0.75,1056.55,1258.99,0,33,1
-3.31,5.18,2.98,0.26,-0.72,-1.40,793.49,879.51,0,33,1
-1.44,3.47,2.44,0.11,-0.47,-1.57,661.19,743.13,0,33,1
-3.30,4.99,2.44,0.12,-0.62,-0.76,617.51,703.44,0,33,1
-4.90,4.95,2.57,-0.20,0.68,0.25,709.78,890.46,0,33,1
-6.16,4.76,2.71,-0.37,1.56,1.59,624.19,724.36,0,33,1
-3.55,6.12,2.61,-0.50,1.13,1.58,493.89,551.10,0,33,1
-4.12,7.97,3.39,0.02,0.53,0.70,355.47,409.15,0,33,1
-3.43,10.44,1.13,0.22,-0.32,0.10,517.56,630.98,0,33,1
-3.77,11.28,0.72,0.06,-0.38,-0.03,1507.61,1899.46,1,33,1
-1.57,10.88,0.93,0.01,0.03,-0.15,1569.81,1807.59,1,33,1
-0.66,10.92,1.92,0.07,-0.15,-0.15,1382.93,1566.87,1,33,1
-2.55,10.12,1.13,0.14,0.24,-0.07,1057.61,1205.00,0,34,1
-3.25,9.57,0.57,-0.08,0.19,0.14,1479.02,1649.94,1,34,1
-2.31,8.96,1.39,-0.17,0.19,0.16,1372.59,1527.10,1,34,1
-2.45,8.81,1.30,-0.08,0.10,0.06,967.05,1141.04,0,35,1
-2.15,8.96,1.07,-0.06,0.07,0.09,914.03,1031.93,0,35,1
-2.38,8.99,1.11,-0.03,0.16,-0.02,1305.83,1516.83,1,35,1
-2.30,9.10,1.27,-0.07,-0.01,0.03,1163.31,1328.12,0,36,1
-2.65,9.15,1.27,-0.06,0.03,0.01,895.88,1025.83,0,36,1
-2.52,9.17,1.30,-0.07,0.03,0.05,903.69,1007.37,0,36,1
-2.75,9.33,1.23,-0.06,0.03,0.10,878.86,977.96,0,36,1
-2.25,10.12,1.13,-0.09,-0.01,0.15,723.62,884.07,0,36,1
-1.74,11.73,1.48,-0.27,-0.08,0.31,895.13,1113.47,0,36,1
-0.80,12.86,1.71,-0.54,-0.28,0.53,1404.43,1683.87,1,36,1
-0.15,11.43,2.17,-0.50,-0.74,0.03,1155.36,1380.63,1,36,1
-3.91,8.98,3.13,-0.11,-1.11,-0.56,824.68,964.01,0,37,1
-3.92,5.56,2.98,0.40,-0.41,-1.10,930.15,1153.90,0,37,1
-1.70,5.00,1.64,0.36,0.06,-1.28,758.58,881.72,0,37,1
-2.80,4.22,2.31,0.13,-0.13,-0.59,1864.26,2030.14,1,37,1
-4.13,4.40,2.31,-0.35,0.52,0.67,1235.42,1395.76,1,37,1
-3.78,2.72,2.17,-0.38,0.84,1.68,999.73,1082.55,0,38,1
-1.69,10.19,0.29,-0.56,0.73,0.96,649.77,747.64,0,38,1
-1.54,9.25,2.07,-0.38,0.27,-0.21,476.75,564.96,0,38,1
-2.06,10.26,2.24,0.03,0.01,-0.85,877.59,1272.51,0,38,1
-4.19,11.10,2.38,0.55,0.24,-0.83,2050.69,2211.46,1,38,1
-4.38,11.42,0.49,0.62,-0.07,-0.37,1604.20,1688.94,1,38,1
-4.25,10.91,-0.15,-0.06,0.00,0.05,1348.56,1439.32,1,38,1
-4.25,8.77,0.43,-0.28,0.23,0.26,1296.57,1418.39,1,38,1
-3.79,8.17,0.94,-0.21,0.25,0.25,1397.90,1573.36,1,38,1
-4.23,8.40,0.99,-0.11,0.26,0.05,1341.27,1422.51,1,38,1
-4.07,8.63,1.05,-0.04,0.09,0.09,1210.61,1318.93,1,38,1
-3.96,8.74,0.99,-0.02,0.02,0.06,973.54,1092.46,0,39,1
-3.91,8.71,0.75,-0.09,-0.06,0.00,828.23,1005.21,0,39,1
-3.71,8.86,0.67,-0.07,0.06,0.04,845.21,1100.02,0,39,1
-3.70,8.88,0.95,-0.08,-0.00,0.06,971.44,1242.92,0,39,1
-3.89,8.86,0.76,-0.05,0.15,0.08,846.22,1065.66,0,39,1
-2.89,9.67,0.63,-0.08,0.11,0.10,717.34,939.21,0,39,1
-2.36,12.18,1.08,-0.23,-0.00,0.23,801.13,1101.50,0,39,1
-2.31,13.07,1.00,-0.46,-0.13,0.41,1196.24,1546.16,1,39,1
-5.18,11.56,1.95,-0.52,-0.17,0.12,1484.75,1722.27,1,39,1
-4.44,8.52,2.15,-0.13,-0.76,-0.44,1398.85,1544.22,1,39,1
-3.85,5.53,2.86,0.23,-0.73,-0.96,1392.04,1553.49,1,39,1
-2.87,3.57,2.70,0.25,0.18,-1.28,1333.83,1439.44,1,39,1
-3.13,5.59,1.74,0.09,-0.11,-0.80,955.75,1159.89,0,40,1
-4.18,6.06,2.67,-0.27,0.55,0.32,785.71,880.68,0,40,1
-4.78,5.43,2.74,-0.19,1.33,1.35,685.03,797.10,0,40,1
-4.71,4.36,3.59,-0.41,0.85,1.81,906.98,1118.98,0,40,1
-1.08,10.77,0.65,-0.04,0.64,1.02,688.18,850.70,0,40,1
-2.34,9.97,1.60,-0.07,0.57,-0.05,534.89,595.23,0,40,1
-1.20,9.33,1.42,0.09,0.13,-0.53,708.52,918.58,0,40,1
-2.73,11.68,2.20,0.32,-0.48,-1.25,1478.71,1858.94,1,40,1
-3.47,11.92,1.25,0.22,-0.23,-0.91,1604.92,1825.05,1,40,1
-4.68,9.99,0.79,0.18,0.05,0.21,1563.93,1673.28,1,40,1
-3.35,8.64,0.45,-0.06,-0.07,0.38,1404.13,1485.27,1,40,1
-4.51,8.12,1.02,-0.16,0.26,0.11,1493.67,1605.00,1,40,1
-4.43,8.27,1.13,-0.06,0.15,0.04,1578.11,1686.56,1,40,1
-4.18,8.58,1.10,-0.08,0.10,-0.12,1533.96,1641.96,1,40,1
-4.38,8.77,1.19,-0.16,-0.07,0.00,1433.63,1523.07,1,40,1
-4.27,8.46,1.19,-0.06,0.11,0.03,1400.91,1515.58,1,40,1
-4.00,8.53,0.93,-0.06,0.09,-0.01,1546.42,1656.54,1,40,1
-3.95,8.56,1.30,-0.05,0.10,-0.02,1551.36,1653.82,1,40,1
-3.56,10.08,0.75,-0.05,0.13,0.07,1508.27,1609.15,1,40,1
-3.66,10.78,0.80,-0.18,-0.01,0.38,1504.90,1628.43,1,40,1
-3.39,11.08,0.96,-0.33,-0.13,0.44,1495.07,1608.49,1,40,1
-3.75,10.96,1.08,-0.41,0.10,0.49,1373.67,1516.33,1,40,1
-3.62,9.49,1.91,-0.09,-0.53,0.19,1139.73,1318.10,0,41,1
-3.26,7.74,3.52,-0.17,-1.23,-0.77,1034.37,1108.11,0,41,1
-3.63,4.86,2.40,0.21,-0.46,-2.03,634.17,731.86,0,41,1
-7.24,3.53,2.59,-0.39,-0.74,-1.79,721.12,824.75,0,41,1
-5.97,4.46,2.94,0.22,2.06,0.09,701.75,785.08,0,41,1
-5.74,4.85,2.69,-0.10,0.74,1.33,682.85,780.21,0,41,1
-5.74,4.85,2.69,-0.10,0.74,1.33,660.36,736.59,0,41,1
-2.75,5.34,2.21,-0.14,0.49,2.06,495.08,566.94,0,41,1
-0.63,6.49,1.83,-0.23,0.53,0.42,497.16,567.46,0,41,1
-0.22,12.59,0.36,-0.61,0.22,-1.48,462.14,556.24,0,41,1
-3.76,13.65,4.58,-0.08,0.87,-1.47,1506.03,1925.26,1,41,1
-3.80,11.43,2.65,0.41,0.59,-0.18,1403.09,1640.98,1,41,1
-4.05,9.17,1.92,0.09,-0.16,0.45,1536.74,1715.48,1,41,1
-4.05,9.17,1.92,0.09,-0.16,0.45,1572.81,1640.85,1,41,1
-4.19,8.03,1.67,-0.08,0.19,0.35,1260.72,1428.71,1,41,1
-3.71,7.90,1.65,-0.12,0.11,0.13,1167.34,1370.89,0,42,1
-4.00,8.37,2.01,0.03,0.06,-0.02,1360.50,1503.51,1,42,1
-3.90,8.67,1.85,-0.08,0.18,-0.06,1412.85,1501.59,1,42,1
-3.61,8.61,1.92,-0.08,0.05,0.02,1348.27,1477.37,1,42,1
-3.55,8.64,1.83,0.02,0.00,0.04,1361.01,1485.73,1,42,1
-3.19,8.73,1.47,-0.01,0.02,0.05,1383.01,1520.63,1,42,1
-3.58,8.67,1.53,-0.05,0.05,0.09,1366.65,1501.83,1,42,1
-3.42,8.53,1.52,-0.03,0.06,0.07,1353.56,1474.79,1,42,1
-3.27,8.84,1.34,-0.08,0.10,0.03,1405.22,1574.53,1,42,1
-3.20,12.69,1.49,-0.03,0.00,0.66,1857.28,1881.45,1,42,1
-0.72,12.83,2.27,-0.31,-0.20,0.70,922.76,1046.65,0,43,1
-1.67,10.35,1.75,-0.34,-0.10,-0.29,673.02,751.57,0,43,1
-2.33,7.20,2.51,-0.18,0.75,-0.96,713.54,881.93,0,43,1
-2.68,5.63,2.65,0.20,-0.03,-1.35,1496.92,1824.26,1,43,1
-4.01,4.41,2.45,0.17,0.44,-1.39,1030.92,1121.15,0,44,1
-6.00,4.13,2.91,-0.22,-0.73,-0.34,694.64,764.44,0,44,1
-6.25,4.11,2.44,-0.06,0.78,0.86,887.44,1263.78,0,44,1
-4.24,5.29,2.86,-0.31,0.18,1.74,639.78,763.34,0,44,1
-2.84,6.26,3.34,-0.11,0.98,1.27,609.07,654.70,0,44,1
-1.63,10.92,1.14,-0.28,0.60,0.19,400.14,470.31,0,44,1
-2.43,10.94,2.47,-0.23,1.03,-0.72,2108.02,2403.20,1,44,1
-3.99,10.66,2.43,0.46,0.51,-0.73,1561.55,1728.92,1,44,1
-3.04,12.57,0.27,0.55,0.36,-0.41,1215.07,1378.08,1,44,1
-2.15,10.16,1.39,-0.18,-0.62,0.33,1123.88,1285.96,0,45,1
-4.19,7.64,1.16,-0.24,-0.20,0.28,1217.65,1323.72,1,45,1
-4.02,8.42,1.13,-0.12,0.55,0.22,1576.15,1792.58,1,45,1
-3.43,8.32,1.66,-0.02,0.15,0.26,1125.76,1308.57,0,46,1
-3.14,8.24,1.00,-0.18,0.22,-0.01,1196.19,1392.90,1,46,1
-4.50,8.22,1.90,-0.19,0.09,-0.12,913.54,1078.91,0,47,1
-3.88,8.49,1.73,0.02,0.07,0.00,1238.95,1404.65,1,47,1
-3.77,8.46,1.22,-0.04,-0.07,-0.00,1276.18,1442.64,1,47,1
-4.22,8.56,1.67,-0.08,0.02,0.03,1399.56,1536.80,1,47,1
-3.97,8.33,1.49,-0.00,0.04,0.05,1257.71,1386.46,1,47,1
-3.25,9.85,1.73,-0.00,0.00,0.07,799.16,940.98,0,48,1
-2.09,12.35,2.16,-0.14,0.14,0.38,724.38,807.52,0,48,1
-4.40,10.37,1.27,-0.13,0.22,0.36,579.38,657.35,0,48,1
-3.11,10.84,1.40,-0.22,-0.51,0.04,489.49,547.01,0,48,1
-3.09,8.60,2.50,-0.03,-0.44,-0.46,553.08,617.24,0,48,1
-4.02,7.41,1.49,0.11,-0.59,-0.74,444.53,509.01,0,48,1
-2.80,5.14,1.53,0.24,-0.28,-1.07,460.53,577.24,0,48,1
-5.10,4.19,2.26,-0.06,-0.45,-1.10,639.44,894.47,0,48,1
-4.46,6.10,2.54,0.15,0.65,-0.10,590.10,752.21,0,48,1
-4.75,5.73,2.45,-0.19,0.50,0.40,473.84,531.01,0,48,1
-5.73,4.19,3.32,-0.15,0.60,1.37,407.85,459.65,0,48,1
-4.66,7.22,2.49,-0.23,0.26,1.71,422.58,460.52,0,48,1
-3.17,7.12,2.58,-0.29,-0.07,0.93,293.65,336.19,0,48,1
-2.22,10.01,1.80,-0.14,0.27,0.16,271.50,298.05,0,48,1
-3.75,9.48,3.90,-0.07,0.04,-0.22,447.67,608.45,0,48,1
-3.65,10.41,3.56,0.16,-0.41,-0.16,1620.81,2081.08,1,48,1
-2.31,10.70,2.12,0.03,0.39,-0.47,1640.71,1913.31,1,48,1
-1.17,10.16,2.33,0.12,0.29,-0.54,1385.14,1580.42,1,48,1
-4.37,9.67,2.23,0.01,0.51,-0.12,1364.30,1519.98,1,48,1
-2.91,8.62,2.21,-0.04,0.23,0.28,1383.03,1485.37,1,48,1
-2.92,8.47,2.27,-0.07,0.18,0.12,1267.20,1365.91,1,48,1
-3.45,8.59,2.29,-0.06,0.07,0.03,1200.92,1318.30,1,48,1
-3.03,8.65,2.28,-0.08,-0.03,0.06,1153.41,1294.16,0,49,1
-3.09,8.62,2.28,-0.01,0.07,0.01,1070.71,1241.91,0,49,1
-2.73,8.85,2.00,-0.03,0.13,-0.00,1014.66,1202.60,0,49,1
-2.88,8.78,2.23,-0.07,0.10,0.04,1034.69,1242.45,0,49,1
-2.56,8.81,2.23,-0.02,0.08,0.04,1027.98,1245.04,0,49,1
-2.96,8.76,2.16,-0.08,0.11,0.04,1025.22,1239.95,0,49,1
-2.66,9.09,2.04,-0.12,-0.00,0.11,1093.47,1305.73,0,49,1
-1.03,10.67,1.94,-0.13,0.01,0.19,1569.83,1828.60,1,49,1
-1.44,11.70,2.22,-0.22,0.27,0.09,1366.32,1531.82,1,49,1
-1.95,11.70,2.77,-0.23,0.26,-0.01,1391.50,1555.92,1,49,1
-3.90,9.51,3.53,0.05,0.27,-0.72,1378.10,1494.82,1,49,1
-4.42,5.65,3.33,0.08,0.07,-1.46,1329.00,1420.97,1,49,1
-5.08,3.23,2.65,0.32,0.53,-1.53,1566.62,1691.86,1,49,1
-5.23,4.38,2.51,0.08,-0.31,-0.66,1294.84,1358.85,1,49,1
-4.68,4.89,2.44,-0.14,-0.25,0.17,706.23,807.28,0,50,1
-5.70,3.08,3.28,-0.31,0.49,1.09,661.14,792.65,0,50,1
-4.55,3.80,2.96,-0.21,0.68,2.08,921.52,1194.56,0,50,1
-3.01,8.42,1.86,-0.50,1.17,1.41,563.82,633.56,0,50,1
-2.46,6.83,3.28,-0.38,0.62,0.27,501.46,591.43,0,50,1
-3.43,8.96,2.38,0.67,1.02,-0.25,421.08,510.56,0,50,1
-2.21,12.59,0.89,0.53,0.10,-0.85,705.69,927.46,0,50,1
-2.95,12.61,0.94,0.18,-0.43,-0.70,2106.43,2317.98,1,50,1
-3.55,10.41,0.83,-0.08,-0.27,0.07,1727.98,1780.76,1,50,1
-3.55,8.51,0.28,-0.30,0.01,0.38,1249.08,1295.29,1,50,1
-3.75,8.02,1.28,-0.27,0.36,0.20,929.73,1050.38,0,51,1
-3.84,8.18,1.58,-0.15,0.12,0.11,1190.52,1416.29,1,51,1
-4.59,8.36,1.56,-0.14,-0.09,0.01,1037.11,1224.45,0,52,1
-4.58,8.29,1.87,-0.11,-0.10,0.04,853.78,1042.40,0,52,1
-3.81,8.54,1.74,-0.00,-0.14,0.10,724.29,961.88,0,52,1
-3.15,8.65,1.40,-0.01,0.00,-0.01,853.30,1166.42,0,52,1
-3.93,8.47,1.80,-0.04,-0.07,0.02,988.65,1284.49,0,52,1
-3.46,8.24,1.89,0.02,-0.04,0.03,881.37,1110.52,0,52,1
-3.99,8.40,1.70,-0.02,0.01,-0.07,737.81,960.64,0,52,1
-3.81,8.66,1.57,0.03,-0.06,0.00,712.46,998.83,0,52,1
-3.97,8.82,1.86,0.02,-0.06,0.01,902.90,1218.57,0,52,1
-4.15,8.34,2.40,0.06,-0.45,0.13,941.44,1229.50,0,52,1
-3.04,7.93,1.76,0.02,-0.28,0.00,818.65,1057.60,0,52,1
-3.67,8.24,2.10,0.03,-0.18,0.02,693.74,954.84,0,52,1
-3.40,8.61,1.46,0.29,0.17,-0.04,693.23,993.50,0,52,1
-2.67,8.72,1.16,0.34,0.08,-0.14,902.50,1227.17,0,52,1
-2.94,9.20,0.86,0.23,0.01,-0.23,928.37,1216.84,0,52,1
-3.66,9.16,0.68,0.11,-0.27,-0.07,989.59,1261.95,0,52,1
-3.41,8.85,0.28,-0.05,-0.25,-0.04,1148.20,1426.73,1,52,1
-3.80,8.80,0.40,-0.06,-0.22,-0.12,1216.00,1497.37,1,52,1
-3.96,8.77,0.43,-0.11,-0.16,-0.04,1473.42,1674.45,1,52,1
-3.96,8.77,0.43,-0.11,-0.16,-0.04,1508.43,1692.34,1,52,1
-3.98,8.39,0.77,-0.14,-0.00,-0.04,1116.36,1290.31,0,53,1
-4.27,8.40,1.34,-0.09,0.08,-0.12,984.09,1142.64,0,53,1
-5.01,8.35,1.41,-0.10,0.11,-0.05,747.01,859.79,0,53,1
-4.77,8.17,1.65,-0.18,0.03,-0.06,997.94,1197.03,0,53,1
-4.82,8.18,1.50,-0.17,-0.11,-0.05,1089.23,1253.08,0,53,1
-4.38,8.30,1.49,-0.07,-0.07,-0.07,814.92,910.71,0,53,1
-4.55,8.22,1.39,-0.05,-0.04,0.00,840.87,931.16,0,53,1
